gyr_x,gyr_y,gyr_z,type,mag_x,mag_y,mag_z,acc_x,acc_y,acc_z-0.042187878,0.050894106,-0.008660834,4,-1.42E-07,40.06466037,-13.01767666,-0.48734181,-0.842689247,9.645268797-0.020421119,0.030058,0.022801351,4,4.38E-08,40.00994692,-12.7386908,-0.25071497,-0.785942769,10.075240560.067855521,-0.044254576,-0.006819464,4,-6.71E-08,40.02744211,-12.6836221,0.024656876,-0.772893749,9.9654991330.047752076,-0.122508045,-0.037185575,4,-1.14E-07,40.03173442,-12.53383435,-0.148728849,-0.613767135,9.5943182270.059946646,-0.093277758,-0.062931324,4,3.77E-07,40.03386082,-12.52703518,-0.61569245,-0.568995164,9.483601654-0.100806295,0.017786685,-0.046248093,4,1.86E-08,40.04397679,-12.59710194,-0.573233217,-0.354948786,9.32802812-0.084734846,0.075291229,-0.022289007,4,8.85E-08,40.04127784,-12.60568207,-0.552862071,-0.378285747,9.640758061-0.036956357,0.021400616,0.030911324,4,1.82E-07,39.96398841,-12.589411,-0.316155382,-0.414120025,9.710265216-0.006203861,-0.00363933,-0.005373003,4,-4.06E-07,39.9529579,-12.62435908,0.016781364,-0.252408227,9.5958618090.010653328,-0.042204031,-0.012317298,4,-3.43E-07,39.83556316,-12.47570991,-0.131726048,-0.414844226,9.623921358-0.010314827,-0.021859196,-0.019185279,4,8.12E-07,39.82917811,-12.49608961,-0.024856073,-0.197338276,9.595242469-0.091208404,0.041167359,-0.033972004,4,1.38E-07,39.64810705,-12.61324847,-0.275765949,-0.35110262,10.03552391-0.037896054,0.019363052,-0.015486404,4,4.95E-07,39.65448346,-12.59319603,-0.117457626,-0.138497478,9.8884113830.010360854,-0.004668475,0.007173962,4,-7.47E-08,39.64916796,-12.74134806,-0.298786717,-0.290148758,9.7836808050.013908718,0.00294828,0.013470708,4,3.74E-07,39.66624358,-12.68808919,-0.645853314,-1.054276155,9.96896376-0.001036229,-0.023608759,-0.025710459,4,2.02E-07,39.78813362,-12.89145518,-0.380039813,-0.820154531,9.7352946-0.042901274,-0.029823948,-0.041628868,4,3.72E-07,39.79561407,-12.86835057,-0.331504856,-0.497019672,9.758298355-0.01172503,0.015845503,-0.009517166,4,8.63E-07,39.84328195,-13.14822905,-0.266178245,-0.21711322,9.899891712-0.003183943,-0.017622446,0.007139719,4,3.03E-08,39.84175898,-13.15286614,-0.160447527,-0.390700922,9.719283740.019803344,-0.003186967,0.018586988,4,2.91E-07,39.67780001,-13.08730385,-0.242688332,-0.571726141,9.418411588-0.079018507,0.034910701,-0.009002689,4,6.15E-08,39.66528617,-13.12520087,-0.356820881,-0.819552048,9.708942928-0.093931739,0.034485924,-0.034836548,4,1.47E-07,39.72457158,-13.26463371,-0.264306332,-0.36389995,9.886880897-0.00821485,-0.032184427,0.00319022,4,1.87E-07,39.70887636,-13.31154314,-0.489176321,-0.35281175,9.8292134380.038916259,-0.0238429,0.019490315,4,-5.42E-07,40.03324986,-13.48663892,-0.517611866,-0.512390102,9.5032271840.034308359,-0.01191098,0.041867505,4,-5.02E-07,40.04898928,-13.43982987,-0.413128339,-0.686371344,9.421608469-0.029232516,0.012141151,0.018192497,4,-2.25E-07,40.18312259,-13.33743342,-0.15207404,-0.736228118,9.506227775-0.119219637,0.031120415,-0.052103521,4,7.24E-07,40.20273101,-13.27822343,-0.228341832,-0.60015556,9.848540613-0.098300751,0.041710008,-0.020683056,4,-5.12E-08,40.21186903,-13.21390911,-0.527454587,-0.402345378,10.221600840.025790754,0.035818347,0.013149293,4,-1.11E-06,40.22086295,-13.18650671,0.033616233,-0.163708442,9.9542808990.024052934,-0.026147255,0.010174956,4,-7.55E-07,40.30523155,-13.10740552,-0.120655223,-0.662162503,9.7802863840.030372675,-0.011231787,-0.003333426,4,-3.15E-07,40.28668975,-13.16430591,-0.309531806,-0.896428336,9.750820422-0.058027361,0.013665306,1.61E-04,4,9.41E-08,40.21585602,-13.25357364,-0.406596929,-0.659964873,9.691565319-0.065957347,0.045122134,-0.040545619,4,1.40E-08,40.20622364,-13.28277455,-0.323207608,-0.445452978,10.166954320.054512427,-0.021044935,0.017166271,4,1.68E-07,40.20939083,-13.20665968,0.066802595,0.017286863,9.6102538070.02924528,-0.027397642,0.014968016,4,-2.27E-07,40.22784427,-13.15033247,-0.365897378,-0.64345589,9.522364681-0.009860736,0.041713865,0.005051318,4,-4.06E-07,40.45502572,-12.91075229,-0.492988842,-0.841988218,9.465205087-0.017392761,0.038297625,0.009902455,4,3.43E-07,40.46617329,-12.8757713,-0.178034286,-0.544996711,9.6535782730.027184353,0.003465575,0.004548406,4,2.29E-07,40.30318228,-12.81117912,-0.0251041,-0.5308717,9.7585424290.035676435,-0.044574465,4.50E-04,4,-2.04E-07,40.29522236,-12.83618939,-0.199445545,-0.524352586,9.8342261590.04564762,-0.045250719,-0.025043083,4,6.07E-07,40.10746784,-12.84949079,-0.369337199,-0.497708393,9.5571392690.02354832,-0.028822698,-0.004391924,4,-5.37E-07,40.08775837,-12.9108681,-0.593616112,-0.600249656,9.4198895040.005871738,0.039768624,0.007563872,4,-4.58E-07,39.95051106,-13.09056391,-0.374061664,-0.400897034,9.043502213-0.07442616,0.096085302,-0.011236288,4,-5.18E-07,39.93845453,-13.12730523,-0.360062502,-0.430724601,9.80708305-0.078178581,0.030817988,-0.026485959,4,-1.70E-07,39.99929656,-13.0982465,0.023342393,0.032948399,10.098856460.051937345,-0.061462265,-0.016342929,4,3.70E-07,40.00567065,-13.07876499,-0.094348746,0.180086411,9.8963330120.058243674,-0.109795041,-0.004220821,4,-2.67E-07,40.06614097,-12.88672135,-0.806897794,-0.238831653,9.4816769720.017225057,0.011060249,0.007848163,4,1.23E-07,40.08853127,-12.81689731,-0.718821607,-0.353740744,9.627234289-0.008826012,0.065783267,0.048939382,4,3.87E-07,40.18049707,-12.78137815,0.030852545,-0.019128636,9.973527937-0.069954874,0.096707187,0.00643777,4,-1.12E-07,40.19105562,-12.74813308,0.369513993,-0.270855204,10.40305843-0.043300951,-0.028203392,-0.047190048,4,8.27E-07,40.28471739,-12.84511529,-0.119950374,-0.283099363,10.16659268-0.017733366,-0.046201323,-0.047462984,4,3.30E-07,40.26992371,-12.89143017,-0.632810268,-0.135486006,9.753095563-0.035833409,-0.034782663,-0.008656882,4,-2.26E-07,40.0796031,-13.24898967,-0.741787418,0.22762746,9.285357295-0.006247292,0.015509868,0.025763432,4,1.19E-07,40.05716234,-13.31668109,-0.670678312,-0.034776954,9.726827212-0.011223709,0.028462884,0.033096161,4,-2.31E-07,40.10423077,-13.33046795,-0.191609059,-0.060344337,10.033354110.010502231,-0.020798463,0.015564321,4,-1.50E-07,40.09797789,-13.34927873,0.16136766,-0.155041694,10.147361980.019396287,-0.06752061,-0.011881488,4,-3.72E-07,40.14294187,-13.17971272,0.030846738,-0.367381277,9.745308095-0.013829713,-0.067687803,-0.018258438,4,-4.04E-07,40.15704463,-13.13666135,-0.467920905,-0.570324614,9.457459156-0.062161352,-0.005617478,-0.021305421,4,1.09E-07,40.29785793,-13.1480641,-0.418475718,-0.291144441,9.568756003-0.089457029,0.037521711,0.021174324,4,-4.97E-07,40.30401755,-13.12918221,0.057205934,0.271960012,9.7689945350.023513421,0.016030372,0.014934628,4,-8.68E-08,40.36441815,-13.13180906,0.004984727,-0.151924186,10.23016830.04643249,-0.072542745,0.009693214,4,1.99E-07,40.35430074,-13.16286493,0.01529092,-0.375474555,9.9115705280.054515528,-0.072524937,0.012579277,4,5.17E-07,40.4108441,-13.44615442,-0.286543789,-0.508850169,9.769050487-0.012932517,-0.046485722,-0.012650476,4,3.17E-07,40.40310421,-13.46942633,-0.391593883,-0.623170277,9.722165945-0.049884488,0.021136516,-0.011429718,4,4.66E-10,40.33633327,-13.41887257,0.010776305,-0.235609116,9.836898841-0.061248822,0.043367902,-0.014489382,4,-1.82E-07,40.3369044,-13.4171594,0.238247117,0.069546766,9.961081983-0.024202569,0.005474313,0.008239541,4,-5.67E-07,40.51925852,-13.51295121,0.059327357,-0.027635837,10.03617486-0.003216492,-0.021165378,-0.018845734,4,3.04E-07,40.54343813,-13.44023018,0.003951127,-0.086680379,9.7986173590.013368572,-0.01897446,0.013662616,4,-2.61E-08,40.45909081,-13.1826038,0.0124908,-0.032089864,9.5165907150.028725775,0.0114139,0.006094961,4,-3.86E-07,40.4765535,-13.12887267,0.017827925,-0.398719367,9.6889090370.001367616,0.02192829,0.00653328,4,6.27E-07,40.72200347,-13.23362029,0.082215334,-0.537504956,9.917434747-0.014188608,0.011382444,-0.013622469,4,-7.53E-07,40.71107238,-13.26720422,0.144619367,-0.307193199,10.03342213-0.005512688,-0.052396975,-0.052496064,4,4.71E-07,40.64292856,-13.24957123,0.040847461,-0.062402812,9.874483697-0.004720152,-0.088669409,-0.060727105,4,4.65E-07,40.61857863,-13.32401467,-0.387039416,0.151415895,9.366379962-0.012484437,0.002312924,-0.017577433,4,2.02E-07,40.65524904,-13.26526183,-0.395235042,0.342179621,9.022353826-0.045308661,0.111884822,0.040130609,4,2.52E-07,40.64930963,-13.28346466,-0.108861118,-0.049893261,9.498727446-0.007146082,0.132703962,0.017643467,4,6.12E-07,40.4972662,-13.37831588,0.445706787,-0.487019647,10.05202044-0.026415075,-0.021626142,-0.027132242,4,2.83E-07,40.51296153,-13.3307257,0.33337987,-0.465681789,10.06454766-0.056823885,-0.076283089,-0.102189232,4,3.46E-07,40.45441289,-13.36064798,0.050443959,0.322611476,9.603214802-0.085646596,-0.051450818,-0.079149853,4,-4.34E-07,40.44818233,-13.37949898,-0.974387116,0.49238111,9.4401159530.005637828,0.01607074,0.022943675,4,-4.86E-07,40.620487,-13.38535109,-0.908482002,0.462290384,9.6911033610.046490334,0.10485595,0.072504528,4,-2.99E-07,40.60802162,-13.42311785,-0.375945476,-0.325610024,10.267176480.054334487,0.066696432,0.062629111,4,-2.26E-08,40.37448297,-13.39420187,0.739550232,-0.371061029,10.282084910.02419789,-0.07564749,-0.03822348,4,1.32E-07,40.34546164,-13.4813837,0.624114076,-0.440157398,9.954912049-0.044362582,-0.173795759,-0.11266688,4,-4.56E-07,40.32712251,-13.64149863,-0.388965244,-0.175450176,9.544284251-0.07251278,-0.058075863,-0.099356319,4,3.48E-07,40.31872908,-13.66627639,-0.770993189,0.662594683,9.217769092-0.070733975,0.125109086,0.313188805,4,-2.92E-07,40.15635766,-13.39112113,-0.615988403,0.782661828,9.8283273120.010016888,0.089445037,0.031737208,4,-4.00E-07,40.16939227,-13.35198824,0.069531407,0.328453529,10.274053060.070591391,-0.028549056,0.066799057,4,3.76E-07,40.16882906,-13.0595244,0.556396844,-0.022495432,9.9962042370.069179384,-0.099965286,-0.035256157,4,2.42E-08,40.17865089,-13.0292609,0.232643484,-0.446122308,9.652001148-0.040333185,-0.105189035,-0.054503361,4,-2.49E-08,39.98514509,-13.03034983,-0.171324915,-0.110785766,9.258444507-0.085515336,-0.003520348,-0.064813473,4,1.00E-08,39.98087231,-13.04344442,-0.108418071,0.441305334,9.634407813-0.051096065,0.006035153,-0.005659663,4,6.08E-07,40.10897541,-12.94990289,-0.072731055,0.538772969,10.027544550.038237634,-0.005141085,0.014544856,4,9.66E-08,40.09700838,-12.98690952,0.008435655,0.176344684,9.9370211130.044544766,-0.036140902,0.025904189,4,-3.13E-07,40.09862007,-12.90708353,0.258475492,0.052889644,9.57068564-0.02013557,-0.048430792,-0.029749839,4,-1.42E-07,40.09354797,-12.92283377,0.167173479,-0.158535393,9.65544614-0.032863159,-0.067966506,-0.051146694,4,-3.74E-07,39.95846817,-12.93176918,-0.039836303,0.055062355,9.727993839-0.054174406,-0.061987144,-0.024480246,4,4.68E-08,39.9736641,-12.8847225,-0.333614186,0.15546712,9.9246020730.010860561,0.007305284,0.032398283,4,-3.47E-07,39.91322446,-12.65299528,-0.050111847,0.314451093,9.8060684370.054535448,0.04118048,0.043987736,4,1.59E-07,39.92796347,-12.6064147,0.396204827,-0.171272347,9.7913642680.026087982,-0.030349358,0.022984998,4,9.46E-08,39.89621638,-12.63933583,0.590457656,-0.391624666,9.471511626-0.060898579,-0.020853964,-0.046682296,4,5.53E-07,39.89506601,-12.64295649,0.349106696,-0.345286911,9.670642419-0.130043041,-0.063298374,-0.082860451,4,-5.62E-07,40.0867381,-12.68544416,0.15831673,0.475016976,9.754209919-0.062068172,-0.023039447,-0.031372067,4,1.52E-07,40.08275489,-12.69801917,-0.031273939,0.798905492,9.917074930.03459953,0.009119771,0.050554424,4,4.68E-07,39.90447342,-12.97805847,-0.285470944,0.074475742,9.8139797410.092851883,0.001671472,0.033504885,4,4.00E-07,39.8937228,-13.01106382,0.262391439,-0.373271275,9.411243071-0.002828792,-0.0216553,0.012605726,4,-4.62E-07,40.00252109,-13.21537009,0.095747633,-0.800218923,9.73659047-0.062024679,-0.034385058,-0.077726506,4,-1.45E-07,39.99380306,-13.2417242,0.393807265,-0.038059024,9.832141469-0.091913674,-0.094476141,-0.065361978,4,-3.75E-07,39.95907803,-13.12435514,-0.098596324,0.551347166,9.953452226-0.026204184,-0.058706405,-0.050683196,4,-3.46E-07,39.99862057,-13.00333133,-0.36451112,0.804671823,9.8640202660.037055878,0.003982537,0.053301988,4,6.29E-08,39.9594034,-13.04034083,-0.699432949,0.077181355,9.6755054260.097521977,0.069114684,0.049986909,4,7.76E-07,39.98008568,-12.97679814,-0.030570409,-0.332825195,9.6355581630.009408662,0.020480749,0.052911944,4,-1.72E-08,40.06344239,-12.80222507,0.559422696,-0.652908902,9.6289963310.016686761,-0.088984407,-0.06028163,4,-1.18E-07,40.06049349,-12.81145513,0.438311172,-0.575373157,9.461286644-0.056259202,-0.094782063,-0.096011437,4,-2.30E-07,40.04482324,-12.93608564,-0.494160153,-0.32077686,9.561358921-0.114283233,-0.014732015,-0.081393982,4,1.50E-07,40.03142189,-12.97747185,-0.295976309,0.73932826,9.561597197-0.01223775,0.024967944,-0.00992635,4,-4.99E-07,40.2712581,-12.96339333,-0.3000864,0.696714107,10.099924840.055946808,-0.007691181,0.046318936,4,3.40E-07,40.26185805,-12.99257118,0.190375769,0.518399447,9.672517140.064481019,-0.007937475,0.03042641,4,-6.71E-08,40.34630244,-12.8818397,-0.052359094,-0.407916941,9.675043396-0.050071149,0.019043849,0.00187484,4,-3.87E-07,40.36321228,-12.82875014,0.503236218,-0.343290089,9.712652162-0.03402281,-0.074393414,-0.053291405,4,-3.20E-07,40.50174555,-12.74766916,0.208620456,0.06159072,9.7632395780.029544454,-0.112893291,-0.044749926,4,-5.03E-08,40.52328388,-12.67903606,-0.212396333,-0.061115467,9.5410010890.020841885,-0.015416862,-0.002363939,4,-2.49E-07,40.5335496,-12.60720992,-0.208225164,0.059126411,9.068331553-0.009743152,0.041839394,0.011565356,4,-4.43E-07,40.54990934,-12.55446784,-0.053241483,-0.206232946,9.663574471-0.013493026,0.01291702,0.011923196,4,4.15E-07,40.3352292,-12.70408081,0.555519043,0.214879417,9.73592016-0.02010224,-0.064682126,-0.052751366,4,-1.36E-07,40.33562191,-12.70281418,0.303263759,0.245759232,9.937623785-0.042448223,-0.076207198,-0.051948856,4,-1.84E-07,40.35015872,-12.71571203,-0.079197472,0.486293469,9.902539408-0.007018487,0.027696219,-0.001272429,4,1.62E-07,40.34271411,-12.73928678,0.061888556,0.492752392,9.942718136-0.008057755,0.018756329,0.019076574,4,8.13E-07,40.18210271,-12.9739864,0.279871893,0.427959634,9.92597980.003678432,0.005833345,0.008564104,4,1.77E-07,40.18210386,-12.97398677,0.026442547,-0.150125479,10.18984638-0.029545893,-0.015249834,-0.039970332,4,2.03E-07,40.39470962,-12.84255971,0.360853507,0.184004118,10.21078031-0.060359509,-0.029149194,-0.048883028,4,4.73E-07,40.40111237,-12.82240879,0.512558773,0.852146529,10.081967160.004814088,-0.045992165,-0.024260483,4,1.07E-07,40.29951744,-12.82788357,0.249555615,0.77467345,9.9891852570.015750073,-0.030766017,-0.004514926,4,-3.16E-07,40.30645076,-12.80608442,-0.180151337,0.184901419,9.941621871-0.023376955,0.023721681,0.010285759,4,2.84E-07,40.21439328,-12.99495975,0.221457496,0.325687532,9.848839712-0.075999968,0.045959474,-0.025515532,4,-4.63E-07,40.21775256,-12.98455606,0.531644566,0.504416303,9.997438523-0.034507128,-0.043363286,-0.037307284,4,-4.11E-07,40.32804984,-13.11769496,0.213615526,0.254823008,10.195622670.001942977,-0.099562268,-0.036353198,4,3.38E-07,40.32802377,-13.11777354,0.194238433,0.628343142,9.5487865350.039644083,0.022177769,0.025291064,4,-5.18E-07,40.19779677,-13.14344813,0.174134736,0.050596142,9.606442214-0.017304433,0.041903459,0.034921008,4,-8.20E-07,40.19484108,-13.15249395,0.56555792,-0.33832979,9.803271204-0.026628167,-0.072416892,-0.067056728,4,-7.64E-07,40.39827375,-13.1491905,0.405071856,-0.151863888,9.34184159-0.106475658,-0.09421822,-0.085585038,4,8.94E-08,40.40292836,-13.13488567,-0.055279614,0.385108528,8.696345124-0.124119362,-0.050299557,-0.09105636,4,5.14E-07,40.56729169,-13.10198831,-0.736050385,0.542572235,9.254546381-0.092287588,0.017610223,0.015170051,4,-4.05E-08,40.57228318,-13.08653318,-0.234271818,1.158131104,9.4504515310.02994849,0.004840364,0.070569162,4,-2.02E-07,40.51369827,-13.07922569,0.11105165,0.498058214,9.5612314120.033569399,-0.025256098,0.032774961,4,2.56E-07,40.50936208,-13.09264887,0.454291827,-0.218331768,9.308217361-0.051202634,-0.056491585,-0.025758347,4,-3.35E-07,40.56019588,-12.98449481,0.334128778,-0.192828261,9.181767122-0.077934623,-0.050450946,-0.049710191,4,-2.47E-07,40.55460149,-13.00197562,0.122463141,0.062373183,9.535379934-0.068842787,-0.05691306,-0.064599058,4,-3.90E-07,40.50239543,-12.83935516,0.192148773,0.499233539,9.611761240.013047406,0.004776571,0.013858099,4,-2.57E-07,40.50341884,-12.8361255,0.379075921,0.51794196,9.58594444-0.006921967,0.02032996,-1.84E-05,4,6.22E-08,40.51324121,-12.80509023,0.437976388,0.075769276,9.885430566-0.053976158,-0.023011873,-0.052025429,4,1.20E-07,40.52220096,-12.77671444,0.499192999,0.162371898,9.824723739-0.080320733,-0.010313739,-0.053638539,4,-2.96E-07,40.43045872,-12.54956149,0.228408343,0.369802002,9.702093966-0.099000149,0.05679879,-0.031913565,4,-1.13E-07,40.43761589,-12.52649085,0.232483661,0.37615193,9.701644994-0.014836035,0.020889135,-0.010594256,4,7.77E-07,40.69387888,-12.62855577,0.236558979,0.382501858,9.7011960220.05788625,-0.055841929,0.006794914,4,2.37E-08,40.70212368,-12.6019767,0.240634297,0.388851786,9.7007470490.034333016,-0.073348258,-0.047110568,4,2.26E-07,40.70490622,-12.59298714,0.244709615,0.395201714,9.700298077-0.028827012,-0.032627853,-0.037478282,4,6.76E-07,40.70816576,-12.58243157,0.248784933,0.401551642,9.699849105-0.003446318,0.03820846,-0.006345531,4,-2.15E-07,40.5702974,-12.51110399,0.252860251,0.40790157,9.699400133-0.03408695,0.018779856,-0.056030369,4,-2.50E-07,40.56409032,-12.53119155,0.25693557,0.414251498,9.698951161-0.005084964,-0.072320154,-0.057985837,4,-3.23E-07,40.64326605,-12.39092005,0.261010888,0.420601426,9.6985021890.015005579,-0.074435367,-0.093389655,4,-1.04E-07,40.65004291,-12.36866433,0.265086206,0.426951355,9.6980532170.029777985,-0.105316539,-0.049971752,4,3.31E-08,40.44796135,-12.44163977,0.269161524,0.433301283,9.6976042450.07613079,-0.042671008,0.025454957,4,-1.54E-08,40.45178445,-12.42921273,0.273236842,0.439651211,9.697155273-0.025985483,0.088998656,0.010721729,4,2.48E-07,40.56714188,-12.47757499,0.27731216,0.446001139,9.696706301-0.052626386,0.069786744,-0.037985518,4,3.92E-07,40.57259519,-12.45982543,0.281387478,0.452351067,9.696257329-0.01396845,-0.083318483,-0.105927846,4,3.35E-08,40.5882752,-12.25900225,0.285462796,0.458700995,9.695808356-0.029605131,-0.179378298,-0.1277265,4,3.73E-07,40.59142289,-12.24857028,0.289538114,0.465050923,9.695359384-0.058421535,-0.095558504,-0.089717628,4,2.12E-07,40.56354083,-12.27586606,0.293613433,0.471400851,9.694910412-0.017502641,0.039124043,0.026829732,4,-4.40E-07,40.54900773,-12.32377437,0.297688751,0.477750779,9.69446144-0.045523429,0.07919547,0.055068008,4,7.10E-07,40.52468537,-12.15926664,0.301764069,0.484100707,9.694012468-0.070305392,0.070295856,0.01064186,4,-2.31E-07,40.52567018,-12.15598371,0.305839387,0.490450635,9.693563496-0.110285872,-0.040338791,-0.055761219,4,-1.56E-07,40.51044433,-12.04038968,0.309914705,0.496800563,9.693114524-0.051538734,-0.104464163,-0.053718706,4,5.45E-08,40.52174314,-12.00228691,0.313990023,0.503150491,9.692665552-0.014350948,-0.093994094,-0.016928605,4,6.71E-08,40.57266736,-11.97357315,0.318065341,0.509500419,9.692216580.008314639,-0.028678167,0.013365701,4,-6.05E-08,40.57026094,-11.98172603,0.322140659,0.515850347,9.691767608-0.019172948,0.007628826,0.01682843,4,-2.83E-07,40.68406095,-12.1217009,0.326215977,0.522200275,9.691318636-0.037820129,-0.027145353,0.021338004,4,5.96E-08,40.67164644,-12.1632998,0.330291296,0.528550203,9.690869663-0.036436187,-0.065794395,-0.062300716,4,-5.77E-08,40.88528355,-12.32576765,0.334366614,0.534900131,9.690420691-0.020891828,-0.06876128,-0.037156173,4,-1.94E-07,40.88019594,-12.34264599,0.338441932,0.541250059,9.689971719-0.038388467,0.004354172,-0.028651983,4,1.79E-07,40.92816796,-12.18213628,0.34251725,0.547599987,9.689522747-0.080772493,0.019627844,-0.062689686,4,-5.99E-07,40.94421994,-12.12809371,0.346592568,0.553949915,9.689073775-0.033531718,-0.014056944,-0.067176624,4,-1.06E-07,40.9586514,-12.26379187,0.350667886,0.560299843,9.688624803-0.005434101,-0.055247936,-0.037957752,4,-1.86E-07,40.96803126,-12.2324122,0.354743204,0.566649771,9.6881758310.032874338,-0.012998411,-0.029008402,4,-7.36E-08,41.07319615,-12.44363672,0.358818522,0.5729997,9.6877268590.021823927,0.02358855,-4.40E-04,4,-2.42E-08,41.07951587,-12.42274073,0.36289384,0.579349628,9.687277887-0.035636527,-0.021253706,-0.076916079,4,2.97E-07,41.006946,-12.54664765,0.366969158,0.585699556,9.686828915-0.128589689,-0.021009554,-0.151126022,4,9.76E-08,41.00429667,-12.55530154,0.371044477,0.592049484,9.686379942-0.037197552,-0.040969491,-0.050320997,4,1.47E-07,41.05492406,-12.79210447,0.375119795,0.598399412,9.685930970.063630966,-0.022774499,0.029063407,4,-3.27E-07,41.04599335,-12.82073008,0.379195113,0.60474934,9.6854819980.017521917,0.033550539,0.047035465,4,4.07E-07,40.9930447,-12.86663499,0.383270431,0.611099268,9.685033026-0.046062429,0.0376715,-0.016470449,4,-2.34E-07,40.98431467,-12.89443497,0.387345749,0.617449196,9.684584054-0.019374212,-0.085067461,-0.076827056,4,4.24E-07,40.79756325,-12.80733847,0.391421067,0.623799124,9.6841350820.002276996,-0.162831828,-0.104684947,4,-6.44E-07,40.79880497,-12.8033761,0.395496385,0.630149052,9.683686110.023593065,-0.101226395,-0.04439,4,-2.32E-07,40.65723886,-12.82547146,0.399571703,0.63649898,9.683237138-0.034396884,-0.010351932,0.023549458,4,-4.19E-07,40.67026556,-12.78410358,0.403647021,0.642848908,9.682788166-0.010269049,0.020030516,0.009105605,4,-3.58E-07,40.62763005,-12.72598236,0.40772234,0.649198836,9.682339194-0.027185544,-0.056439256,0.004367341,4,-9.35E-08,40.63437742,-12.70438143,0.411797658,0.655548764,9.6818902220.018286861,-0.092753964,-0.021022661,4,-1.03E-07,40.52370585,-12.39397177,0.415872976,0.661898692,9.6814412490.003153315,-0.08860348,0.015000997,4,5.64E-07,40.52440255,-12.3917005,0.419948294,0.66824862,9.680992277-0.020500715,-0.059192412,-0.045517646,4,9.26E-07,40.58662046,-12.38744354,0.424023612,0.674598548,9.6805433050.028138788,-0.101717783,-0.036830285,4,2.37E-07,40.58935174,-12.37850998,0.42809893,0.680948476,9.6800943330.004569195,-0.041444102,0.009795164,4,8.82E-07,40.48661512,-12.29828328,0.432174248,0.687298404,9.679645361-0.021842088,-0.010321292,-0.016023176,4,-6.49E-07,40.49301594,-12.27721559,0.436249566,0.693648332,9.679196389-0.00378983,-0.049702262,-0.044343337,4,-1.42E-07,40.38464306,-11.98722101,0.440324884,0.69999826,9.6787474170.04520144,-0.046688738,-0.002929822,4,-4.17E-07,40.38523772,-11.9852368,0.444400203,0.706348188,9.6782984450.00885414,-0.066772765,-0.011089541,4,1.28E-07,40.48763846,-11.87767673,0.448475521,0.712698116,9.6778494730.067003449,-0.098670166,0.036296607,3,5.63E-07,14.73590156,-10.54277397,-0.044469413,-0.733071835,9.6262490840.022044368,-0.032971733,0.051343099,3,-2.93E-08,14.74210571,-10.53409469,-0.305138723,-0.158789366,9.842641091-0.048212831,0.07582595,-0.078739585,3,5.67E-07,14.73820092,-10.27171386,-0.197054205,-0.462985491,9.339544457-0.020415001,0.167009256,-0.111847956,3,1.91E-07,14.74577174,-10.26084089,0.799595543,-0.381067483,9.0474551440.132418357,0.010384547,-0.038677894,3,2.59E-07,14.64653152,-10.05835594,1.082366361,-0.430835604,9.7891819660.05767001,-0.080549241,0.089353522,3,-3.76E-07,14.65341995,-10.04831585,0.294849576,-0.131362059,10.20291232-0.100031259,-0.05484828,0.057079029,3,-8.50E-08,14.77870565,-9.809915313,-0.547377852,0.507816965,9.927313285-0.088359816,0.003363101,0.019384146,3,-1.29E-07,14.78050379,-9.807203633,-0.868670928,0.171291301,9.1189583930.063252426,0.040747093,-0.057890214,3,-3.70E-07,14.83676057,-9.677787152,-0.64035546,0.028260279,9.568689170.124433647,0.002189698,-0.112666474,3,-3.31E-07,14.84327697,-9.667790551,-0.282005326,-0.3989127,10.17076130.009520733,0.073574167,-0.104095949,3,2.52E-07,14.69299702,-9.507331328,0.301405185,-0.698738465,9.913411007-0.038862654,0.101141148,-0.109246015,3,2.55E-07,14.69983584,-9.496747879,1.33798091,-0.070212742,9.6746804020.091047912,0.047815244,-0.0075792,3,8.03E-07,14.64071762,-9.350850196,1.472207072,-0.325247604,9.600603815-0.021920507,-0.074624612,0.085983977,3,-7.52E-07,14.64571039,-9.343031903,0.642851856,-0.298654659,9.764824324-0.081295428,-0.079769733,0.099510439,3,2.73E-07,14.54455105,-9.133716624,-0.486971695,-0.300944933,9.79083164-0.063029743,0.02982622,0.043887452,3,3.03E-07,14.54921935,-9.126276231,-1.121405157,-0.099486633,9.9420980160.096269297,0.064250739,-0.094873124,3,1.94E-07,14.75373975,-9.022489416,-0.74799006,-0.205253155,10.030613120.092669249,0.152202852,-0.159540189,3,-9.54E-07,14.76059825,-9.011260905,0.386086718,-0.452720452,9.6975426470.101497148,0.115177074,-0.113198141,3,5.84E-07,14.5979881,-9.230356713,1.389078321,-0.420682318,9.4949249390.115882254,-0.025173961,0.05726167,3,5.84E-07,14.60739059,-9.21546842,1.164753245,-0.526806461,9.6271208760.035297132,-0.117336273,0.141063154,3,5.20E-07,14.73998113,-9.151636723,-0.061678368,-0.509091192,9.621834641-0.048847839,0.008957658,0.084154464,3,-5.22E-07,14.75065444,-9.134426434,-0.892615699,0.320379236,9.695505593-0.108534099,0.00724191,0.043194058,3,-5.55E-07,15.00182562,-9.284771139,-1.131499811,0.252211234,9.2542087760.034239478,0.101357683,-0.087810211,3,-3.71E-07,15.00720266,-9.276077692,-0.39575192,0.200806046,9.7042955410.009925592,0.120040932,-0.137855285,3,4.11E-07,15.15044413,-9.54262574,0.433264377,-0.747675047,9.755767413-0.027796248,0.070312696,-0.022665245,3,5.46E-08,15.15000494,-9.543320931,0.894284418,0.00595086,9.8289621830.027268746,-0.078853139,0.021059734,3,3.52E-07,15.45982534,-9.888916108,0.521490183,0.030066311,10.104387440.040473774,0.023424963,0.043588451,3,1.16E-07,15.46511088,-9.880647543,-0.027169775,-0.689654474,9.957461720.009262248,0.021815041,0.001017036,3,4.87E-07,15.66561205,-10.08028202,-0.307245333,-0.720403834,9.633796113-0.012113828,0.018910496,0.018248591,3,1.14E-07,15.67200457,-10.070337,-0.24751372,0.008113697,9.2484994290.201289327,-0.009018102,-0.040158704,3,6.89E-07,15.7754089,-10.00389404,-0.251212592,-0.416123737,9.7453733180.155965577,0.048719571,-0.05613077,3,2.33E-09,15.78757918,-9.984670631,0.012925585,-0.606944676,10.63328605-0.135127532,0.106281175,-0.067108783,3,7.36E-07,15.56467665,-10.06340377,0.622776108,0.45352752,10.14115261-0.012084541,0.021552945,-0.00854732,3,9.19E-07,15.5721482,-10.05184166,0.579503767,0.249147309,9.3240255490.036119231,-0.010208111,0.032002733,3,-3.83E-07,15.67310114,-9.992885906,-0.034683453,-0.634788309,9.443597914-0.032975363,-0.041387577,0.014295074,3,4.80E-07,15.67830096,-9.984725489,-0.53313628,0.612146822,9.801168964-0.148282637,0.057998913,-0.014425822,3,-3.10E-07,15.56351753,-9.848242129,-0.465171066,1.037618143,8.9386171280.02907384,0.141691209,-0.147846044,3,3.59E-07,15.56346098,-9.848330389,0.344282175,0.817046006,8.4333672340.29091087,0.082261014,-0.073642073,3,-6.43E-08,15.47958105,-9.83296343,1.261847898,-0.464026926,8.5848815830.082589238,-0.179003927,0.075590124,3,4.59E-07,15.48090023,-9.830889605,0.238419356,-0.824459977,9.564606489-0.16710134,-0.044571233,0.128768568,3,-2.55E-07,15.39086798,-9.883701856,-0.689220273,0.215531806,9.187023026-0.014272599,0.050273349,-0.029328141,3,-1.04E-06,15.39777426,-9.87294019,-0.846722474,-0.049405957,8.8508003460.124291717,0.052593574,-0.123376612,3,-3.17E-07,15.47356586,-9.681772119,-0.032192921,-0.066741917,9.642893928-0.124434644,0.128320792,-0.045967255,3,-2.75E-07,15.48015828,-9.671228949,0.70337613,0.133621572,9.196586175-0.119494276,-0.056551428,0.035517204,3,6.00E-07,15.35398301,-9.592954848,0.440172325,0.350749243,8.843677398-0.032511354,-0.052968031,0.055962854,3,-3.20E-07,15.35887276,-9.585124325,-0.324870221,0.270635347,9.6981214350.019672595,0.05137565,-0.011806358,3,1.23E-07,15.2434789,-9.821829694,-0.598678175,-0.96678189,9.9421372280.055404394,0.159613071,-0.140654676,3,6.88E-07,15.24523627,-9.819100722,0.425611149,-0.607059308,10.167879920.146372069,0.050878263,-0.048838454,3,4.93E-08,15.37686471,-9.956807049,1.240581153,0.004887657,10.518387010.048793934,-0.140951351,0.122737577,3,5.05E-07,15.38020423,-9.951643258,0.275433573,0.182398635,10.1788568-0.002554186,-0.028563553,0.059036562,3,4.18E-07,15.47628054,-10.21126305,-0.609918586,0.245469311,9.947420704-0.025688053,0.069942148,-0.05835636,3,1.15E-07,15.47690032,-10.21032067,-0.520810602,-0.277185212,9.929711569-0.075359921,0.184593448,-0.094977239,3,-1.83E-07,15.28550518,-10.43496485,0.427160193,0.297342717,10.083479930.091209372,0.024162428,-0.057516907,3,1.33E-07,15.2837641,-10.43751226,0.711215659,-0.444478894,10.109804560.051606576,-0.005390613,0.058633738,3,-1.46E-07,15.2516003,-10.36643043,0.317006397,-0.266594585,9.8369350660.088479621,-0.097522897,0.062323975,3,5.19E-07,15.24956006,-10.3694332,-0.507192319,0.359390503,9.5672622790.260131016,-0.040081896,-0.035042228,3,2.55E-07,14.96292826,-10.20614996,-0.907051023,0.990423183,10.384575070.277557234,0.074052348,-0.153902533,3,-9.40E-07,14.96081972,-10.20923747,-0.28925343,-0.498296549,11.260929730.033682296,0.130468159,-0.111912807,3,-5.37E-07,14.49250712,-10.1632421,0.884281326,-0.625087356,11.1523991-0.24057365,0.103333732,-0.027369038,3,5.85E-07,14.49370906,-10.1615285,1.375675822,-0.0484101,9.571600388-0.118418618,-0.016136324,0.120727253,3,3.52E-07,14.4708953,-10.02533012,0.797762888,0.657312525,8.4958259610.122087202,-0.104606271,0.054951037,3,1.77E-07,14.47076393,-10.02551824,-0.318825836,0.843013193,9.5631212860.063875759,0.008014735,-0.009577196,3,-3.14E-07,14.58982944,-9.904434895,-1.000905308,0.211676894,10.53543412-0.060941821,0.16039859,-0.110890366,3,-1.75E-07,14.59372194,-9.898698478,-0.377090189,-0.403970004,10.19279673-0.009894715,0.09945316,-0.110988527,3,-4.34E-07,14.41649158,-9.884524606,0.556609113,-0.388110668,9.2896440160.071072776,0.042781782,-0.013745788,3,1.49E-07,14.42078144,-9.878267282,0.720582552,0.404191883,9.1409822370.054251566,-0.114689956,0.066678213,3,9.08E-08,14.03813622,-9.65666097,0.041155844,0.568282686,9.6245022230.117430942,0.042864173,0.030599027,3,5.78E-07,14.04451976,-9.647370581,-0.221047975,0.1441297,10.5556474-0.017999887,0.090586834,-0.092596021,3,4.22E-07,14.1371365,-9.595165819,-0.044033763,-0.74817176,10.97778033-0.206021974,0.105716408,-0.027347012,3,-1.26E-07,14.13788196,-9.594063286,0.327342021,-0.413911798,10.46389012-0.195522932,0.038503105,0.035968041,3,-5.87E-07,14.04594585,-9.515634852,0.246105056,0.466599569,9.6525798040.082398453,-0.049790305,0.03768435,3,-4.21E-08,14.05155119,-9.507356452,-0.33926618,0.595821613,9.5760939250.269320231,-0.019820048,-0.024043915,3,-4.58E-07,14.36799591,-9.464063429,-0.645391565,0.041530883,10.487581670.202467822,0.031569579,-0.098752194,3,-3.00E-08,14.36917369,-9.46227447,-0.309964586,-0.980356072,11.03593130.048388848,0.084439113,-0.064364533,3,-2.28E-07,14.71573382,-9.672662579,0.315455731,-0.676695037,10.6845716-0.037232901,-0.023248865,0.030886379,3,2.21E-07,14.71766314,-9.669727899,0.338072785,0.244401293,9.9111558340.039014918,-0.047839567,0.038787243,3,8.13E-07,14.82416355,-9.489407358,-0.150738246,1.27130698,9.6733096380.111383123,-8.10E-04,-0.019158055,3,1.50E-07,14.82371295,-9.490111558,-0.299420767,0.451587602,10.169359220.054994249,0.107378836,-0.108548601,3,-6.19E-07,14.77718949,-9.35862918,0.336911284,0.028814314,10.40481401-0.046240298,0.086381755,-0.064859943,3,-1.10E-06,14.77569035,-9.360991017,0.842059302,0.430670122,9.5809799830.135997633,-0.047429053,0.024670379,3,-7.33E-07,15.05768811,-9.197507448,0.42690814,0.251523213,8.9144796180.25264916,-0.147002994,0.084728501,3,4.80E-08,15.06252348,-9.189587952,-0.423793714,0.331326229,9.5564723420.137649683,-0.05471883,0.042743228,3,1.55E-07,15.43072298,-9.089090742,-1.137336998,0.436441611,9.735483963-0.182297044,0.059608087,-0.023824669,3,-4.04E-07,15.43441916,-9.082809477,-0.853997465,0.683443699,9.356240873-0.094551833,0.098204828,-0.103048432,3,2.36E-07,15.64922302,-9.106802234,0.047120889,0.738078923,9.446563654-0.108151145,0.058911168,-0.090709521,3,-3.40E-07,15.65274414,-9.100751022,0.573993935,0.587599554,9.59668724-0.090756079,-0.057217066,-0.038681764,3,-4.94E-08,15.76324266,-9.100605497,0.338792446,-0.106838731,9.267701707-0.042527073,-2.00E-04,0.062407768,3,7.68E-07,15.7646886,-9.098100723,0.295393312,0.162456393,9.2220909370.010029877,-0.088602209,-0.01344888,3,6.23E-07,15.81860417,-9.103047127,-0.301092583,0.202807944,9.0096120430.147953505,0.029437523,-0.056923218,3,-9.87E-08,15.81781683,-9.104418652,-0.074011546,-0.029307589,9.070564936-0.049970723,-0.006354401,-0.039190852,3,-3.71E-07,15.77418905,-8.976921055,0.251779915,0.353985933,9.478966715-0.063855583,-0.011952027,-0.014584585,3,-5.03E-08,15.77116913,-8.982226735,0.185060055,0.234294564,9.62897876-0.059071677,-0.043698504,0.008540635,3,1.61E-07,15.83649339,-9.186139811,-0.047191477,-0.179910877,10.02231853-0.207924033,-0.019094248,0.001051883,3,-2.49E-07,15.83375795,-9.190853231,-0.386083154,-0.251591067,9.414491677-0.114986973,0.003371696,-0.026293161,3,8.57E-07,16.04442529,-9.273105087,-0.325810845,0.247965858,8.9303152750.164756,-0.03630726,-0.077472318,3,-1.08E-07,16.04225188,-9.2768643,-0.077362657,0.140175838,9.5146888850.27086849,-0.046015375,-0.096110544,3,9.17E-08,16.16112661,-9.410431153,0.216743673,-0.7473928,10.76260187-0.031820328,-0.017695836,-0.023079054,3,-2.10E-07,16.15788283,-9.416005373,0.327096805,-0.560534184,10.78527314-0.238583224,0.024458907,-0.053835813,3,-4.40E-07,16.10430787,-9.475653888,0.349681295,0.721883159,9.770323797-0.2006005,0.079564505,5.84E-04,3,4.69E-08,16.09944822,-9.483904395,0.457082021,0.223235496,8.35268747-0.044312832,-0.031506211,0.035523104,3,-3.46E-07,16.05153016,-9.543932781,0.263208379,-0.078252076,8.1374845370.146890995,-0.093997852,0.021082869,3,5.96E-08,16.05325634,-9.541036632,-0.155064159,0.579641357,9.4696540950.306241992,-0.089788494,0.008386629,3,-2.64E-07,15.89580193,-9.723885335,-0.40470258,-0.242689808,10.54178485-0.011258956,0.018646087,-0.004078376,3,2.75E-07,15.89476085,-9.725589398,-0.3133758,-0.586615534,9.781939686-0.147310694,0.051355869,-0.021181888,3,-2.52E-07,15.78944485,-9.720411193,0.184873475,1.207564275,9.039962706-0.059447443,0.009294076,-0.009502046,3,4.53E-07,15.79044386,-9.718788919,0.278326281,1.258597562,8.7322250650.024047192,-0.041678477,0.034873899,3,-2.06E-07,15.72689931,-9.900905196,-0.22305108,0.387516401,9.619468934-0.18730092,0.008802992,0.049215754,3,1.07E-06,15.72824311,-9.898772933,-0.617897329,-0.466852472,9.638178468-0.006590593,-0.028556306,-0.001959398,3,2.64E-07,15.51228103,-9.936024997,-0.484312912,0.878875201,9.5050845760.029382939,0.060916982,-0.072231476,3,2.58E-07,15.50872011,-9.941583233,-0.065606249,0.874052785,8.9385439580.084193771,0.029639509,-0.03774264,3,-1.24E-06,15.48952245,-10.13061626,0.256633836,-0.19796213,8.5750221670.054170448,-0.037403362,0.052786113,3,-1.66E-07,15.48864737,-10.13195423,0.241826453,0.324536517,9.567240025-0.01354763,-0.089462621,0.104155416,3,6.15E-08,15.18106513,-10.10685744,-0.534775765,-0.351735909,10.23587175-0.174764709,-0.02036502,0.061884492,3,6.85E-07,15.17548625,-10.11523198,-1.189929897,-0.323807377,10.23182816-0.184432593,0.054139611,-0.018899964,3,-3.89E-07,14.94958501,-10.28643044,-1.017903308,-0.002581679,9.068885-0.017497235,0.100341498,-0.085446474,3,-6.96E-07,14.94443025,-10.29392173,0.033329467,1.113224527,8.2440937580.237920843,-0.041960463,-0.057035519,3,-1.29E-07,14.91560225,-10.23004001,0.454984383,-0.118206048,8.9738283980.228938248,-0.095841879,0.055900172,3,2.51E-08,14.91317069,-10.23358424,0.146845333,-0.795635376,10.25106529-0.092732149,-0.136391977,0.08965141,3,1.51E-07,14.92046897,-10.16949619,-0.78469064,-0.187101758,10.45788116-0.252270198,0.020663165,-0.007174687,3,1.86E-07,14.91686848,-10.1747794,-1.016145363,0.727372628,9.523267698-0.061111418,0.067450754,-0.074243689,3,-8.75E-07,14.88524338,-10.17022225,-0.421275704,0.592289104,9.1428808340.221784184,0.031848478,-0.110066148,3,1.30E-07,14.884399,-10.17145961,0.399694253,0.118727974,9.8997761680.185816646,-0.049052108,-0.020212864,3,4.13E-07,14.83629027,-9.666188856,0.627605382,-0.449339469,10.591882970.102403314,-0.109839763,0.06502292,3,-2.31E-07,14.82831321,-9.678425319,0.106384033,-0.116016004,10.70715588-0.006482077,-0.133506105,0.112216827,3,1.61E-07,14.63682853,-9.610251216,-0.67364531,0.446125221,10.58187787-0.116808759,-0.017833429,0.026509023,3,2.38E-07,14.62908806,-9.622032941,-0.912330806,0.96501773,9.6773331778.81E-04,0.011880171,-0.051107521,3,-4.51E-07,14.50555692,-9.231976307,-0.505668212,0.864335468,9.1309480080.192195149,-0.003599885,-0.08370117,3,7.08E-08,14.50217962,-9.23728266,0.069898951,0.446425022,10.107786850.194630057,-0.026739459,-0.070726525,3,1.09E-07,14.35413752,-9.296217191,0.364126429,-0.262259846,10.83258979-0.059471408,-0.017189343,-0.013956398,3,1.93E-07,14.35004617,-9.302533275,0.347844249,-0.493669325,10.09888-0.004572901,0.017615207,0.033505376,3,7.68E-09,14.34748344,-9.178850228,0.740085113,0.714516472,9.2586793230.211158046,-0.057361966,0.034023728,3,1.44E-07,14.34820494,-9.177719019,0.508466332,0.805438938,9.5532614690.155216602,-0.031682068,0.036990571,3,2.78E-07,14.44077114,-9.064183574,0.17740697,-0.122662156,10.34200283-0.05801138,0.020369785,0.072416611,3,-1.66E-07,14.43916588,-9.066741053,-0.147620309,-0.083881305,10.29115385-0.133981618,-0.073793723,0.08197626,3,4.09E-07,14.24211226,-8.920774937,-0.864232291,0.129169492,9.3506885190.016552498,-0.018069342,0.05668485,3,6.40E-07,14.23553799,-8.931263056,-0.892871965,0.572204636,8.6922744320.146795549,-0.023722721,-0.072946963,3,-1.10E-07,14.28526371,-8.880147404,-0.612879508,0.866821037,8.9259586570.201090586,0.044972436,-0.089274292,3,2.02E-07,14.27748647,-8.892646802,0.074676422,0.745877798,9.6025453880.116005034,-0.009839178,-0.061127701,3,-4.29E-07,14.28698616,-8.954703006,0.419427562,0.296604303,10.27417578-0.096864839,0.027135647,0.003780696,3,-5.94E-07,14.28853947,-8.952224329,0.468393183,-0.156864615,10.48981969-0.22814794,0.026952016,0.015736208,3,-3.50E-07,14.48501952,-8.84615875,0.132047321,-0.671736457,9.368579609-0.156395247,-0.01408318,0.098939362,3,-3.82E-07,14.48636257,-8.843958596,-0.152586703,0.515791835,8.4674710140.231597248,-0.097628341,0.009268524,3,1.68E-07,14.55548908,-8.972452356,-0.635612999,1.526360307,9.9026854890.280979963,-1.84E-05,-0.070984475,3,-4.54E-08,14.55866561,-8.967299304,-0.57659818,-0.610955775,10.8010678-0.043335718,0.157357605,-0.089966615,3,5.59E-07,14.79888613,-8.991142195,0.563250046,-0.111119657,10.68038253-0.330532885,0.1094741,0.003063724,3,-1.83E-07,14.80083464,-8.987931129,0.914320396,-0.401127987,8.576369221-0.065313337,-0.071391144,0.128150608,3,-3.59E-07,14.79801776,-8.854461043,0.242306321,0.270537518,8.6232271650.120076565,-0.158307366,0.112831486,3,-3.20E-07,14.79900714,-8.852808444,-1.043317797,0.162583033,9.6033762780.175181488,-0.067623372,0.031769904,3,-5.82E-07,14.64557131,-8.837922441,-1.753054762,-0.116142081,10.071112770.194415353,0.020151143,-0.135596856,3,-4.06E-08,14.64393408,-8.840625979,-1.007316787,0.163360336,10.622775650.090145103,0.075004269,-0.12127699,3,4.83E-08,14.88211077,-8.735887304,0.106143314,-0.478050691,9.951488637-0.246497203,0.075479221,-0.103888649,3,3.67E-07,14.8853262,-8.730411576,0.869689201,0.360892552,9.0518515-0.136114081,0.002027908,0.04831413,3,-5.20E-07,14.83762646,-8.600113334,0.806235223,0.892217272,8.5277159120.128735574,-0.163139742,0.115981633,3,-1.24E-07,14.83803575,-8.599415679,-0.069274696,0.058310736,9.5455335390.203201616,-0.019911158,0.028707446,3,4.41E-07,14.98769874,-8.865408328,-0.555843718,-0.287097973,10.98354783-0.057222863,0.125087877,-0.126473536,3,-3.59E-07,14.99129283,-8.85932811,0.089834704,-0.373008616,10.49034213-0.075483148,0.104655988,-0.035171614,3,-6.30E-07,15.02977467,-8.607116584,0.934602743,0.910611562,9.1986806460.138226604,-0.050390169,0.091386694,3,8.96E-09,15.02865649,-8.609068019,0.692389874,1.053465839,8.7648529690.042463629,-0.097728624,0.13982407,3,7.00E-08,14.97820744,-8.729495054,-0.544189759,0.350728337,9.351628304-0.028234997,-0.064066022,0.095405147,3,-6.80E-07,14.97719374,-8.731232196,-1.415647595,0.392595377,10.04176346-0.077365336,0.068302033,-0.068575369,3,3.54E-08,14.94765135,-8.661683155,-0.915687729,0.6581555,10.13799660.058341038,0.164664149,-0.179037414,3,-7.76E-07,14.94897683,-8.659393597,0.344981965,-0.04317021,9.7462308910.114175287,0.119608794,-0.158504031,3,-3.05E-07,15.02505057,-8.666670552,1.666126747,-0.40455316,9.608745596-0.040555611,0.028984665,0.131199497,3,-1.72E-08,15.02446916,-8.667676831,1.516068733,-0.56908354,8.690323109-0.074406187,-0.202950152,0.251442312,3,-1.58E-07,15.41373097,-8.703160832,-0.385318646,0.747758736,8.744278560.276383816,-0.205285794,0.200450871,3,-8.53E-07,15.41453032,-8.70174735,-2.681146745,0.398033406,10.99042926-0.041996443,0.053807901,-0.08415461,3,2.80E-07,15.40598284,-8.956682458,-2.517801724,-0.677939414,11.19891124-0.380915167,0.34528323,-0.276397822,3,5.50E-07,15.40390433,-8.960256137,0.290981563,0.905618947,8.6195923890.128165689,0.089092,-0.234731907,3,-1.72E-07,15.3597746,-9.396182118,2.49051331,0.699994005,7.3695435410.387960151,-0.071639863,0.142596207,3,-4.30E-07,15.35828671,-9.398613563,1.939990296,-0.484707672,9.6319445170.1292949,-0.244315514,0.202921923,3,2.22E-07,15.38790941,-9.402734805,0.056976687,-1.017268347,11.43266443-0.148276792,-0.006229602,0.201293749,3,2.06E-07,15.38744648,-9.403492158,-1.425961924,-0.186428602,10.8563468-0.226500478,0.016391163,-0.031538122,3,2.74E-07,15.28471743,-9.772134007,-1.454057881,1.001169982,9.606751803-0.052178124,0.186405729,-0.097147266,3,7.22E-09,15.28059365,-9.778580625,-0.325716581,0.845000752,8.5373949270.312497668,0.045859089,-0.138240257,3,3.56E-07,15.60628031,-9.681380715,0.583957133,-0.335716431,9.4814746970.280991674,0.006139068,-0.020375701,3,8.76E-07,15.59891269,-9.693252292,1.156127031,-0.185894529,11.40459991-0.104227354,-0.023441002,0.086629746,3,-2.77E-08,15.63213348,-9.760395122,0.589479321,-0.451045212,10.9930648-0.259416466,0.061184678,0.05126455,3,3.29E-07,15.63581386,-9.754499811,0.080649346,-0.062568101,9.157707428-0.054476469,0.069892414,0.042128369,3,-3.14E-07,15.51803124,-10.00191751,0.041659388,0.72834812,8.1786035140.240249155,-0.024404051,0.038944348,3,-3.57E-07,15.52072107,-9.997744951,-0.229511789,0.577855935,8.8553403450.327018196,0.062859586,-0.046031735,3,2.88E-07,15.47792713,-10.31402582,-0.051440404,-0.123495948,9.9467107810.132442347,0.055934332,-0.035622796,3,-3.12E-07,15.48145376,-10.30872733,0.210371067,-0.229243448,10.24314227-0.238025871,0.071694894,0.035087566,3,-3.22E-07,15.57531342,-10.20318303,0.286859392,0.993220306,9.448130188-0.159473792,-0.020975634,0.091530952,3,1.62E-08,15.57525301,-10.20327522,-0.454648568,0.412423623,8.3249088570.118973181,-0.016414286,0.07028359,3,2.41E-07,15.66597763,-10.21903663,-0.837657338,0.974618194,9.6948391230.101189656,0.054704883,-0.119261825,3,3.08E-07,15.66960497,-10.21347376,-0.505560734,0.894649654,10.626783280.003264196,0.13839601,-0.098815295,3,5.74E-07,15.57235291,-10.27159725,0.309454597,-0.515199473,10.36620607-0.082161699,0.070045015,-0.048874924,3,4.75E-07,15.56845518,-10.27750791,0.886233758,-0.309912825,10.04450534-0.074177791,0.043127407,0.053929932,3,1.87E-07,15.72174544,-10.35590276,0.640245996,-0.293018325,9.3830394080.005997447,-0.080254323,0.117679023,3,-5.58E-07,15.71533072,-10.36563146,-0.127945426,0.146077501,9.1530513970.15148425,-0.04421155,0.070507195,3,1.66E-07,15.31106076,-10.38615525,-0.702579059,0.525306451,9.7197478470.027225523,0.053902068,-0.021679459,3,-1.07E-07,15.30441319,-10.39594672,-0.523215531,0.233152656,9.784457282-0.026410978,0.144249743,-0.10422832,3,1.33E-08,15.15028893,-10.25628852,0.218860993,-0.261733195,9.687051663-0.147848665,0.125348339,-0.031258722,3,-5.17E-08,15.14840105,-10.25907291,0.869368264,0.212033347,9.404376456-0.153063331,0.019226639,0.056744729,3,-4.46E-07,15.07356617,-10.12627588,0.600437596,0.205941117,8.743449790.15849025,-0.010925843,0.060721106,3,-2.79E-07,15.07265673,-10.12763041,0.17719205,0.499330574,9.1116864660.24544524,-0.107792959,0.086526113,3,-4.43E-07,14.96107501,-9.935249819,-0.822662654,0.349092563,10.261999560.124918468,0.002551845,-0.023410015,3,-1.19E-07,14.95974343,-9.937253556,-1.15982897,-0.526431537,10.79174934-0.133288715,0.134416109,-0.06170545,3,-4.03E-07,14.69000756,-10.04193416,-0.296127494,-0.435562359,9.70574386-0.19499378,0.142216293,-0.067484475,3,6.54E-07,14.68970582,-10.04237038,0.55365269,0.960858502,8.415241490.117712609,-0.044319868,0.029062931,3,2.79E-07,14.60082361,-9.782572739,0.542137596,0.579428969,8.291853310.165790374,-0.143789321,0.098009008,3,5.02E-07,14.60052837,-9.783013996,-0.265004323,-0.103014692,9.7134487640.015394295,0.017952733,0.021831105,3,8.46E-07,14.55605645,-9.590852868,-0.448735809,0.274143691,10.6710815-0.085648678,0.116277169,-0.070228294,2,-1.21E-07,15.40702539,-10.00832295,-0.59749086,1.854075106,9.352042149-0.012259916,0.149365966,0.027895901,2,5.83E-07,15.32131301,-9.885060351,0.15978614,1.515484845,9.3656718840.145536391,-0.02780325,-0.055353677,2,-5.24E-07,15.31914525,-9.888419505,1.149413313,1.693496293,9.1082734910.07324068,-0.095208796,-0.095936584,2,-1.26E-07,14.86611503,-9.640540482,0.825478053,1.291125312,9.263596757-0.059339645,-0.084985747,-0.161509322,2,-5.03E-07,14.85814604,-9.652818694,-0.126494176,1.576778116,9.686362242-0.038483716,0.029729397,-0.100484313,2,1.15E-07,14.91371634,-9.638943314,-0.678991987,2.00832471,9.701949436-0.047696117,0.084387935,0.033811029,2,-2.57E-07,14.91671342,-9.634302929,-0.278355069,1.963809743,9.5514288640.003317047,0.121926549,0.001702776,2,-4.53E-07,15.0149726,-9.23689103,0.357307171,1.528480962,9.397674003-0.041509969,0.022448878,-0.074405068,2,-3.45E-07,15.01193601,-9.241822456,1.112266551,1.414530409,9.1562466320.013385571,-0.116953636,-0.115730423,2,5.96E-08,14.9596384,-9.15993922,0.814608287,1.505983282,9.4916600040.017259216,-0.136030276,-0.159258219,2,-9.02E-07,14.95858717,-9.161657689,0.015109984,1.988124581,9.7250089940.009070052,-0.046850646,-0.062634789,2,2.40E-07,15.10057017,-9.203859863,-0.417759891,2.058993074,9.545833466-0.036940586,0.097138183,0.023913988,2,6.89E-08,15.0943215,-9.214104886,-0.161438321,1.622211361,9.452283934-0.04130746,0.119630123,-0.004013745,2,5.12E-08,15.14250824,-8.965719969,0.663634907,1.09570749,9.6289384740.014678782,-0.043612926,-0.063522025,2,5.87E-08,15.1415371,-8.967359384,1.153847246,1.234459245,9.5935001030.073518857,-0.111430299,-0.113969471,2,-1.19E-07,15.01172238,-9.243015951,0.877627817,1.454901013,9.391013147-0.057302886,-0.038774212,-0.13022672,2,1.75E-07,15.01068219,-9.244704351,0.269118948,1.455472419,9.590155853-0.060827088,0.019044952,-0.08063596,2,4.06E-07,15.17381679,-9.201381458,0.104233458,1.848883108,9.7899837930.025193641,0.027196985,-0.010941779,2,-2.31E-07,15.1724298,-9.203666345,0.607322009,1.808386887,9.4701923410.009957014,0.031313554,-0.064620838,2,-9.31E-10,15.12097909,-9.079757435,0.844701801,1.377907631,9.292483337-0.053142684,-0.015511757,-0.110772165,2,-9.54E-07,15.1197952,-9.081720748,0.943280016,1.32226742,9.757145112-0.060323158,-0.031570071,-0.153376388,2,-5.59E-08,15.08433582,-9.156510101,0.634054851,1.539632032,10.309020620.005153724,-0.090890947,-0.1092035,2,3.91E-07,15.09214702,-9.14363167,0.3050789,2.208563734,9.6913798970.060941313,0.01556272,-0.010623307,2,-4.28E-07,15.42599225,-9.271916444,0.135937681,1.597216729,9.193773968-0.020978335,0.090097965,-0.030583707,2,3.45E-07,15.42176725,-9.278943582,0.757923477,1.29970672,9.198199071-0.058591193,-0.002503434,-0.065312605,2,3.37E-07,15.62931651,-9.136649297,1.012187177,1.34078624,9.937297981-6.75E-04,-0.07765025,-0.130457287,2,2.29E-07,15.63167051,-9.132618543,0.638090093,1.469469283,10.09592385-0.010315485,-0.108106287,-0.092882868,2,-5.59E-09,15.74308544,-8.966240284,-0.01236513,1.620061095,9.6665541580.058757014,-0.020846534,-0.017316154,2,-8.01E-08,15.74913334,-8.955615596,-0.021054422,1.602211419,9.2093150450.053232705,0.036845031,0.006230848,2,-8.00E-07,15.66513077,-9.018326192,0.700006579,1.312835313,9.2311971370.018316508,-0.004430989,-0.036897031,2,2.51E-08,15.67595051,-8.999506918,0.938195898,0.625516073,9.6713688-0.025446587,-0.073940485,-0.117568165,2,-7.48E-07,15.76812213,-8.741241743,0.814541802,0.731828138,9.6509288770.002714247,-0.092932561,-0.113469607,2,-2.54E-07,15.7658943,-8.745258642,0.842925899,1.872012502,9.357633721-0.001854834,-0.005190044,-0.078005828,2,1.75E-07,15.47202036,-8.826196905,0.130315413,1.770424701,9.359674004-0.022752726,0.095702192,0.016210999,2,-7.45E-09,15.45884441,-8.849251322,0.099473923,0.94132283,9.272247126-0.047096467,0.101737218,-0.027687145,2,5.55E-07,15.65337309,-8.853368217,0.398128452,0.121940812,9.674218766-0.04568736,-0.013342837,-0.122400647,2,-5.09E-07,15.64489989,-8.868330141,1.188403441,1.46174061,9.7352239370.043019387,-0.148160267,-0.137890629,2,1.02E-07,15.84437346,-8.662441163,0.504878533,1.300292332,10.059507940.086954996,-0.069061307,-0.050209423,2,3.32E-07,15.84651928,-8.658512629,-0.163503368,1.236067137,9.5145797380.017788164,-0.002952331,0.009786997,2,-6.56E-07,15.47368961,-8.63283536,-0.012257034,1.223796075,9.287102133-0.014039767,0.080404582,0.002013508,2,-1.04E-07,15.47097689,-8.637700807,0.33706748,0.80798823,9.628364454-0.056779627,-0.011778219,-0.057915128,2,-5.22E-08,15.27896351,-8.912912927,0.527294864,0.724491404,9.9565378290.01498632,-0.07007445,-0.13095755,2,-3.07E-08,15.27246482,-8.924042025,0.464533057,1.273003541,9.7673427690.013371041,-0.037752701,-0.064893893,2,5.22E-08,15.3939007,-9.015638797,0.357999658,1.379072116,9.4038942080.02409073,0.030259616,0.030877024,2,-2.35E-07,15.3904732,-9.021487288,0.300011603,0.959807998,9.4380451420.050727617,0.056010034,-0.010092955,2,6.33E-08,15.35906219,-9.373834286,0.592568251,0.56339845,9.621976775-0.011735029,0.013031508,-0.052859667,2,-3.96E-07,15.35060047,-9.387683792,1.043392349,0.615629686,9.717351913-0.04912326,-0.023888942,-0.120487586,2,3.99E-07,15.2285592,-9.585812243,0.517903173,0.696239953,10.08114918-0.010967945,-0.051509858,-0.116249588,2,2.81E-07,15.22029061,-9.598940028,0.06289531,1.173479509,9.975701891-3.03E-04,-0.007206696,-0.06219008,2,-2.52E-07,15.3655975,-9.69837675,-0.205559411,1.448326001,9.685541902-0.031126619,0.033232796,0.004228834,2,-2.76E-07,15.35418034,-9.716444133,-0.050384614,0.9949101,9.600951621-0.031542652,0.034356361,-0.014070389,2,-1.23E-07,15.31826891,-10.03854948,0.432575563,1.008238405,9.835101125-0.006293446,-0.030019447,-0.060776862,2,3.80E-07,15.31470557,-10.04398799,0.582018774,0.937408521,10.010976350.035427631,-0.090106513,-0.08433117,2,1.08E-07,15.08827585,-10.15236008,0.032272511,0.634990696,9.801360931-0.019702337,-0.02483574,-0.10020941,2,-2.34E-07,15.22466748,-10.186278,-0.003925132,0.986579686,9.474518483-0.077706961,0.008972367,-0.066890111,2,-4.61E-07,15.21480255,-10.20100593,-0.020687312,1.144209311,9.647916935-0.022288904,-0.01662834,-0.007523477,2,1.70E-07,15.21441066,-10.01474753,-0.160793399,0.940027774,9.897640243-0.010048686,-0.015138052,-0.033095626,2,1.74E-07,15.20635636,-10.02697113,-0.095133982,0.910028401,9.689990510.034868492,-0.028337601,0.02613084,2,-5.77E-08,15.03136733,-10.03759628,0.274561682,0.777224141,9.5059668330.031547065,-0.026810977,0.015095035,2,-4.07E-07,15.02372139,-10.0490363,0.439033467,0.349644191,9.5093710910.010675328,-0.044751025,-0.079402625,2,-3.86E-07,15.03362781,-9.932281346,0.767795899,0.645046662,9.613858624-0.028301223,-0.078750447,-0.11095936,2,-2.33E-08,15.02496124,-9.945384309,0.541377925,0.844596643,9.65170883-0.005761765,-0.042699789,-0.074937385,2,2.31E-07,15.0881011,-9.803215351,0.366903809,0.909947804,9.7848402910.018117016,-0.02005032,0.010057371,2,-1.25E-07,15.0789209,-9.817331349,0.533643838,1.089654002,9.6209208870.019245828,-0.011414516,-0.004498131,2,2.26E-07,14.98325109,-9.785704544,0.23303072,0.210310073,9.684414267-0.017633402,-5.53E-04,-0.018827313,2,-1.37E-07,14.97924246,-9.791839013,0.487502194,-0.072732686,9.574546938-0.028083488,-0.028267492,-0.065908722,2,2.61E-08,14.88285139,-9.529186841,0.50648354,0.134850229,9.731872250.024339178,-0.073973595,-0.088041203,2,1.88E-07,14.87939612,-9.534581387,0.589738448,0.551745423,9.7593714840.037710776,-0.079711884,-0.037623135,2,2.29E-07,14.79473553,-9.54157246,0.346122423,0.795156853,9.5464436220.011202891,0.008025976,-0.036175609,2,6.33E-08,14.78792689,-9.552116714,0.219419586,0.596115225,9.484586455-0.035470383,0.055297589,-0.01508575,2,-1.46E-07,14.75996545,-9.39886832,0.244271241,0.165036705,9.767298374-0.054768472,0.045704348,-0.051384246,2,-1.54E-07,14.74805027,-9.417552409,0.334655091,0.066100963,10.0183474-0.032733897,-0.026541038,-0.09696565,2,1.87E-08,14.86892706,-9.492645134,0.125004072,0.282067517,9.746457182-0.018802127,-0.006873294,-0.04484775,2,-3.67E-08,14.85736412,-9.510731639,0.139957197,0.609627724,9.7345374510.041204608,0.014128608,0.017737907,2,-1.23E-07,14.79950057,-9.511205446,0.06926327,0.28042956,9.9189978590.081805968,-0.022190496,0.016188663,2,2.33E-08,14.79244854,-9.52216798,0.31732767,0.235890511,9.6982961060.040099716,-0.063572159,-0.089011431,2,9.48E-08,14.98508212,-9.540315606,0.332143834,-0.123588505,9.539343973-0.076314466,-0.042915529,-0.122674904,2,1.54E-07,14.97842478,-9.550763872,0.070314802,0.279659716,9.384989157-0.043866027,-0.032236773,-0.099145626,2,-1.35E-07,14.9643266,-9.582831818,-0.606218093,0.620311605,9.576206868-7.65E-04,0.025455854,0.022576356,2,-2.49E-07,14.9507168,-9.604050347,-0.640387005,0.367240268,9.531280564-0.016888174,0.04922503,0.070252549,2,-2.84E-08,15.203299,-9.528343432,-0.197343486,-0.105264628,9.404519925-0.03628492,0.045905917,0.008203754,2,-1.53E-07,15.19197017,-9.546399825,0.256671399,-0.364434286,9.685170527-0.019600801,-0.055190867,-0.057198467,2,1.58E-08,15.25157396,-9.60055749,0.111772182,-0.31504549,9.9487426160.026997659,-0.072405529,-0.071608163,2,5.31E-08,15.24636188,-9.608834319,-0.25430562,-0.263748749,9.8394285630.015990636,-0.034189265,0.005931375,2,-6.33E-08,15.37519417,-9.585650779,-0.564166932,-0.343726134,9.459919119-0.013593601,0.028470987,0.025834115,2,-1.38E-07,15.36548156,-9.601208765,-0.530745916,-0.756068726,9.7578066390.016976089,0.01185074,0.02054675,2,3.26E-08,15.22423864,-9.57188182,-0.459290186,-1.216752161,9.9424167230.012129885,-0.055169428,-0.043595241,2,8.29E-08,15.20561376,-9.601447807,-0.337205828,-1.276612537,9.754943424-0.019465799,-0.024287738,-0.045334835,2,1.66E-07,15.09514217,-9.627430986,-0.932264275,-1.533187674,9.401199406-0.034282631,-0.021506112,-0.029919453,2,-2.42E-08,15.07568685,-9.657868659,-0.786796133,-1.015602095,9.3236854320.005123972,-0.002397701,0.030727396,2,-1.72E-07,14.99695356,-9.559105196,-0.913046253,-1.138820628,9.453345360.001261542,-0.010793481,0.045119483,2,-2.37E-07,14.98590481,-9.576422215,-0.734872952,-1.40254323,9.611968663-0.018033071,-0.001678913,-0.023917416,2,7.45E-09,14.79704577,-9.310015558,-0.61252105,-1.237804089,9.621811547-0.030422622,-0.025852156,0.003492153,2,-1.49E-08,14.78914953,-9.322549165,-0.68336775,-1.012673211,9.6814452010.013004366,-0.007446481,-0.004497438,2,-1.86E-09,14.72478442,-9.255331178,-0.841915059,-1.081266271,9.600743354-0.027586065,-0.001624492,0.023481332,2,9.83E-08,14.71840323,-9.265479797,-1.308554599,-1.364039715,9.353910171-0.027413606,0.035818889,0.002984258,2,5.82E-08,14.45134585,-9.367830534,-1.177628259,-1.405181098,9.553138849-0.005596552,-0.028203958,0.025366344,2,-3.26E-09,14.4394707,-9.386121229,-0.858670415,-0.893355256,9.627163850.066358536,-0.049901603,0.012903239,2,1.77E-08,14.39164629,-9.290119624,-0.520916034,-0.810946238,9.6396153310.007087408,-0.061002181,-0.017027505,2,3.07E-08,14.38441345,-9.301313365,-0.757632613,-0.79056257,9.345687763-0.025390884,-0.013628826,0.007788165,2,3.63E-08,14.12916357,-9.184710451,-1.048330757,-0.983241284,9.587323149-0.049014482,0.026604183,0.013231265,2,-9.50E-08,14.12288467,-9.194362713,-0.809947878,-0.625032592,9.558462659-0.048030511,0.020618456,0.018188353,2,2.05E-08,14.1043072,-9.453740432,-0.722056223,-0.612312554,9.69617680.010249248,-0.003917211,0.040618496,2,2.12E-07,14.095066,-9.467512557,-0.66457711,-0.77446031,9.642535870.012101644,-0.035769487,0.037151442,2,3.91E-08,14.30781948,-9.492243504,-0.703292184,-0.905725475,9.6623456280.029406808,-0.030152412,0.030261904,2,-8.38E-08,14.30047281,-9.5033052,-0.54141046,-1.093804296,9.458202011-0.01380597,-0.040920561,0.010958776,2,-1.86E-07,14.48284046,-9.622630534,-0.442964678,-0.932075303,9.4226296450.0054049,-0.03506058,0.016340308,2,-4.84E-08,14.47515959,-9.63417876,-0.594033465,-0.895732073,9.669584156-0.039931336,-0.006358871,0.016237987,2,-7.45E-09,14.65674027,-9.957539176,-0.636420057,-0.86419441,9.727649819-0.035013018,0.013082586,0.023469359,2,-1.23E-07,14.64733708,-9.97136856,-0.848161485,-1.067797606,9.725819766-0.026220374,0.029263562,0.044247431,2,-7.08E-08,14.80174953,-10.01044684,-1.004083001,-1.344437646,9.708334628-0.033194646,0.01651413,0.023470957,2,-9.41E-08,14.79289623,-10.02352309,-0.386785418,-1.114566989,9.682266101-0.012558049,-0.037239266,0.023508959,2,-1.66E-07,14.89257759,-9.939672696,-0.493251654,-0.826647523,9.6202135720.021241298,-0.043773382,-4.39E-05,2,3.87E-07,14.89158896,-9.941154961,-0.543577403,-0.716319489,9.618608492-0.006790755,-0.025731677,0.016185578,2,-9.50E-08,15.03644769,-9.938234586,-0.825948784,-0.845245958,9.538966351-0.011704257,1.51E-05,0.021759916,2,1.84E-07,15.03053707,-9.947171773,-0.856538334,-0.804894474,9.577602077-0.027716023,0.001343899,0.029979514,2,-1.44E-07,15.32858702,-10.32930832,-0.86975105,-0.808333735,9.424983051-0.028440952,-0.019473278,0.024343496,2,2.37E-07,15.31667311,-10.34696322,-0.716107069,-0.746992196,9.564126896-0.06805229,0.039740774,-0.006937987,2,4.18E-07,15.40262468,-10.46876958,-0.820222404,-0.921817346,9.701303427-0.016643168,0.002731406,0.048554002,2,-8.94E-08,15.39020643,-10.48701349,-0.64862337,-0.669013461,9.8728549510.048277036,0.025664667,0.012354306,2,-4.31E-07,15.30627202,-10.82131278,-0.384253327,-0.794080405,9.7853216320.031369805,-0.068467864,0.042481146,2,1.61E-07,15.29788629,-10.83316511,-0.707248828,-1.474239818,9.8180636870.03320088,-0.014763822,-0.032149672,2,3.91E-08,15.24886384,-11.17717526,-0.483363156,-1.005178745,9.543292208-0.041171091,-0.067751755,-0.029272052,2,1.60E-07,15.24106226,-11.18780515,-0.716060947,-0.659347538,9.417008119-9.90E-05,-0.002460094,0.034294277,2,7.13E-07,15.30638169,-11.19517187,-0.886780802,-0.573402362,9.3760900550.034725541,0.039599084,0.083539582,2,4.90E-07,15.28915068,-11.21869417,-0.707656307,-0.750683562,9.308854704-0.028591489,0.056542178,0.063980071,2,-3.99E-07,15.39586079,-11.24334388,-0.447677637,-1.401454168,9.7169285750.012424112,0.004750275,0.03172898,2,1.97E-07,15.38503944,-11.25814695,-0.418052995,-1.661842745,9.63399905-0.008182965,-0.079797601,-0.055960872,2,3.17E-07,15.46787352,-11.265216,-0.763091673,-1.312785603,9.335422368-0.052805673,0.00297916,-0.042019533,2,-3.30E-07,15.46471271,-11.26955119,-1.03174551,-0.732851756,9.239441867-0.034662892,0.044392628,0.056830001,2,5.10E-07,15.57714177,-11.11521234,-1.092419674,-0.541158616,9.8497829290.063569914,0.025182786,0.048017724,2,5.24E-07,15.56470914,-11.13261373,-0.682297373,-0.487764718,9.9858820660.05083913,-0.033591737,0.034348269,2,2.35E-07,15.44324785,-10.91060329,-0.666126458,-1.184919986,9.90076079-0.011546422,-0.014689507,-0.00915204,2,3.73E-09,15.42334289,-10.93872226,-0.433930697,-0.740769647,9.520815003-0.077027175,-0.029840918,-0.065740158,2,3.71E-07,15.62904289,-10.55207425,-0.967689761,-0.683847589,9.694756474-0.101067261,0.087532195,0.013684915,2,2.20E-07,15.60485313,-10.58781483,-1.485714801,-0.715900941,9.778504366-0.05580239,0.109270794,0.076105133,2,-6.88E-07,15.49835792,-10.01250144,-1.146365824,-0.887759115,9.8663943990.011033882,0.027495179,0.045071004,2,5.22E-07,15.48104447,-10.03924921,-0.572751772,-0.909027864,9.6365639890.025341772,-0.05879189,-0.010861642,2,-4.15E-07,15.62523391,-9.549242027,-0.52189176,-1.192886037,9.345531007-0.001315167,-0.066182676,-0.024747679,2,-1.53E-07,15.61345712,-9.568482628,-0.889015965,-1.267162148,9.281027531-0.104399768,0.045113494,-0.025608896,2,-1.83E-07,15.61815248,-9.512894725,-1.195701356,-0.995442488,9.465646976-0.076850667,0.096199234,0.031248294,2,-1.06E-07,15.61003497,-9.526208509,-1.093812076,-1.044182405,9.971712949-0.049628584,0.065985243,0.066781241,2,5.87E-08,15.39331815,-9.326898813,-0.616050627,-0.945576235,9.8097264250.01482513,-0.001706182,0.048820363,2,2.51E-07,15.38403206,-9.342208827,-0.784823697,-1.35194203,9.5706397160.003245546,-0.02349845,0.009925836,2,-3.35E-07,15.46282935,-9.246755313,-1.104292122,-1.691204949,9.138719811-0.07759757,0.005758522,-0.008868727,2,-4.24E-07,15.45517919,-9.259536699,-1.112641828,-1.283922376,9.041324557-0.043585921,0.025014242,0.01022553,2,4.32E-07,15.23055683,-9.301525552,-0.851566516,-0.711914669,9.6214846950.011050663,-0.01222836,0.02631703,2,2.98E-08,15.21720738,-9.323349506,-0.583242608,-0.424644193,10.39008050.083018945,-0.036072737,0.050914876,2,2.61E-07,15.10199833,-9.048479217,-0.524817624,-0.673110507,10.196622540.043114196,-0.032542726,0.036878203,2,2.72E-07,15.09306563,-9.063369939,-0.509156061,-1.089733409,9.764636655-0.030718092,0.008121012,-0.009746319,2,-1.62E-07,14.86997947,-8.933396509,-0.936075249,-1.625064347,9.545810463-0.167657704,0.043231376,-0.030369049,2,4.28E-08,14.86276595,-8.945395899,-1.051697251,-1.194466663,9.657453036-0.035353783,0.025181282,0.019730226,2,-1.19E-07,14.96391582,-8.793150597,-0.790367953,-0.356961811,9.769923080.0655356,-0.028609591,0.056980442,2,-7.08E-08,14.95909539,-8.801353018,-0.709982464,-0.70400581,9.7992251350.08216945,-0.0413471,0.04290338,2,-2.08E-07,14.83040031,-8.61075995,-0.769059716,-1.074254978,9.6206711590.006915346,-0.034718423,0.013681843,2,1.07E-07,14.82195334,-8.62528996,-0.765410189,-1.319956789,9.663110427-0.024360531,-0.013505747,0.00181932,2,1.56E-07,14.75278774,-8.256848034,-0.670936002,-1.043599612,9.720274818-0.038545117,0.007197917,0.011648911,2,-4.80E-07,14.74320051,-8.273956891,-0.729293012,-0.785083389,9.976208499-0.007463193,0.015859646,0.04182834,2,4.51E-07,14.71131903,-8.08662622,-0.856924649,-0.944791841,9.9807503260.001930128,-0.022313,0.03255289,2,-4.62E-07,14.56198689,-7.952943497,-1.056415733,-1.240055415,9.8850193380.029389451,-0.033889216,0.027614697,2,2.37E-07,14.55929924,-7.957860491,-1.160347814,-1.288788636,9.590274571-0.010558773,-0.020042308,0.02679989,2,6.84E-07,14.67637016,-7.930526653,-0.945083132,-1.072841841,9.355616937-0.041428337,0.026513032,0.03008037,2,-1.04E-06,14.67199577,-7.938612387,-0.822308765,-0.897277717,9.706526887-0.008827133,0.010049558,0.037559742,2,-8.57E-08,14.75381028,-7.988327266,-0.765545387,-0.871607357,10.189865630.031948468,-0.014183414,0.037901082,2,2.20E-07,14.74665141,-8.001530435,-0.547684724,-0.855191113,9.8924121060.041460542,-0.042001669,0.032724356,2,5.87E-07,14.6841678,-7.997324988,-0.423684923,-0.848283894,9.5410277970.042354212,-0.052186285,0.021322453,2,-9.22E-08,14.67344105,-8.016993949,-0.696702044,-0.991274223,9.243730269-0.069227921,-0.024944206,-0.001420964,2,-1.56E-07,14.64112141,-8.149055246,-0.64580308,-0.643200268,9.24956356-0.072732316,0.036881214,0.007493454,2,4.36E-07,14.63010812,-8.168808085,-1.052480165,-0.588315613,9.985066304-0.010604015,0.050298408,0.063102269,2,-9.31E-08,14.52385372,-8.412872987,-0.577229843,-0.506762421,10.264978710.060387273,-0.023774516,0.07769502,2,5.03E-08,14.52030763,-8.418992914,-0.194414718,-1.047496099,10.051128180.087193384,-0.083428437,0.011222211,2,-6.94E-07,14.49235544,-8.433271075,-0.325310353,-1.446880145,9.447380536-0.009241862,-0.06283971,0.00839515,2,-7.32E-07,14.4908622,-8.435840245,-0.746312843,-1.406527829,9.161224483-0.037386959,0.041176824,0.013692139,2,9.31E-09,14.47569356,-8.593762485,-0.460604175,-0.801702256,9.2986201640.008448398,0.045639259,0.057235068,2,-7.10E-07,14.47191394,-8.600123646,-0.327136029,-0.802972266,9.7993902690.082416208,-0.001018089,0.028459889,2,1.08E-07,14.45976144,-8.462303289,-0.328617237,-1.304999775,9.725826137-0.033377924,-0.030816958,-0.03760381,2,1.19E-07,14.45357478,-8.47287086,-0.294508145,-1.182037388,9.054499878-0.082531164,-0.027696105,-0.052245608,2,3.58E-07,14.36245667,-8.406953487,-1.08582965,-0.872794098,9.323659374-0.04325508,-0.006620259,0.008298769,2,3.05E-07,14.35696543,-8.416330994,-1.034762166,-0.176847081,9.5907100930.037205547,0.035676614,0.090777657,2,2.05E-08,14.36861251,-8.392704584,-0.785698165,-0.143074638,9.8276464240.104584461,0.042836542,0.097964779,2,2.66E-07,14.36601881,-8.39714548,-0.513329957,-1.142321007,10.16757550.050419311,-0.048084413,0.043450787,2,2.12E-07,14.44018457,-8.415054587,-0.187588362,-1.327423047,9.746485323-0.047725874,-0.048360494,-0.062584682,2,-2.46E-07,14.4366918,-8.42104404,-0.620870355,-1.247242403,9.592788797-0.09246175,-0.041909932,-0.044482465,2,6.43E-07,14.60963175,-8.419659744,-1.06967726,-0.740532046,9.65869371-0.081060747,0.056944065,0.028661536,2,3.26E-08,14.60363524,-8.430057653,-1.117577151,-0.103276488,10.029996580.038200913,0.074846255,0.087779674,2,1.93E-07,14.72107277,-8.386009246,-0.56347747,-0.242042467,10.095500420.087997076,0.013620531,0.092035162,2,6.43E-08,14.71217992,-8.401601702,0.081421074,-0.756027597,9.6529495930.021787068,-0.026225,0.016627206,2,7.45E-09,14.8324336,-8.566768932,-0.045269596,-1.409819004,9.670239538-0.029098462,-0.052018224,-0.015735542,2,-3.43E-07,14.82429267,-8.580852952,-0.553680974,-1.202631413,10.23192336-0.040550701,-0.022251961,-0.047074113,2,-1.96E-07,14.86467882,-8.361834111,0.026326327,-0.003465364,10.05468691-0.013819682,-0.054789218,-0.00403763,2,-5.46E-07,14.85615755,-8.376963227,-0.458493532,0.102852118,10.02327840.061376206,-0.03336939,0.044992559,2,-4.92E-07,14.96134953,-8.425557047,-0.754258268,-0.212413767,9.509947724-0.025154158,0.0784736,0.068486771,2,2.46E-07,14.95769257,-8.432047218,-0.795116896,-0.6960866,9.111448749-0.078957812,0.069416372,0.033278401,2,9.30E-07,15.30531375,-8.517062689,-0.345862358,-0.728652734,9.588501683-0.047125855,-0.013659595,-0.026348525,2,-7.22E-07,15.30086198,-8.525056921,-0.108386289,-0.425023356,9.7469660740.009911398,-0.134280398,0.004228667,2,4.20E-07,15.56619987,-8.560333407,-0.752139555,-0.353252074,9.7366521540.08649671,-0.066698451,0.032141674,2,5.96E-08,15.56012022,-8.571381904,-1.118859918,-0.609825116,9.550495125-0.007084768,-0.001355247,0.096076044,2,1.72E-07,15.67856743,-8.657031504,-0.644684637,-0.58295234,9.352946524-0.066551274,0.135233953,0.058926338,2,2.53E-07,15.70689942,-8.669964574,-0.074337531,-0.670895095,9.63372183-0.10750768,0.072002485,0.041401121,2,4.47E-08,15.69644492,-8.688879073,0.248151024,-0.833470984,10.1041411-0.033347691,0.009117982,-0.015988294,2,-2.98E-08,15.93243595,-8.377870809,0.266297096,-0.545344831,10.220373160.027916625,-0.07965385,0.003488257,2,-2.98E-07,15.92173503,-8.398190887,-0.331445359,-0.649314959,9.9967464650.095241896,-0.089749813,5.77E-04,2,1.43E-07,15.93239835,-8.326027732,-0.780344339,-0.812855056,9.6898804810.004681013,-0.0161351,0.049172209,2,4.46E-07,15.91679814,-8.355811825,-1.185763251,-1.116827661,9.791969645-0.069418062,0.096510483,0.015804997,2,2.61E-08,16.25012799,-8.373114878,-0.239184876,-0.209848724,9.715457289-0.031973436,0.072209804,0.053697163,2,1.12E-08,16.23794491,-8.396724808,0.170551398,-0.159759834,10.026828290.012288431,0.094642994,-0.107566381,1,9.28E-07,42.32186651,-6.256895219,-0.50741858,-0.718916195,10.214921440.034257254,0.105248195,-0.053790645,1,-5.22E-08,42.31864374,-6.278638531,0.276993783,-0.463685924,10.32870038-0.111218064,0.035947332,-0.001821701,1,-4.97E-07,42.52306028,-6.291440666,0.529677333,-1.573788063,8.6763156220.043018545,-0.143156962,0.114302393,1,-1.95E-07,42.52230654,-6.29652521,0.072260828,0.700975926,8.730699540.226425828,-0.07767848,0.053791163,1,4.70E-07,42.34804493,-5.983900647,-1.057937456,-0.344188806,9.550194780.033034265,0.062489399,-0.098094771,1,1.99E-07,42.34698783,-5.991359803,-0.93471255,-1.088120939,10.38451511-0.189729514,0.14660511,-0.06425117,1,-3.84E-07,42.25040192,-5.949447525,-0.326974553,-1.755063068,9.694048561-0.109814084,0.011428298,-0.042906148,1,-3.89E-07,42.2460473,-5.980297326,0.401375015,-0.736439073,9.108419650.142786291,-0.114780517,0.092363623,1,-3.83E-07,42.24214026,-5.936190547,-0.095170224,-0.745423406,9.0370542230.214554039,-0.188123515,0.055251638,1,6.59E-08,42.24115807,-5.943187056,-1.120252927,-0.686686105,9.9672268130.183335364,-0.029700973,-0.016857306,1,4.57E-08,42.08800626,-5.878146126,-1.428361744,-0.687187912,10.443757670.083754204,0.011066627,-0.094131405,1,1.87E-08,42.09330061,-5.840150084,-0.819432177,-0.736328193,10.52907116-0.153288573,0.102607178,-0.150492098,1,-1.72E-07,41.72030647,-5.910589778,0.091548938,-1.331679198,9.662623264-0.242493084,0.101878175,-0.069054846,1,1.52E-07,41.7167359,-5.935797798,1.283620631,-1.037139977,8.120948650.017190451,-0.079326716,0.065063774,1,1.35E-07,41.70049281,-5.978000861,0.914208698,-0.564986351,8.0133545280.166631231,-0.131100585,0.069895837,1,-1.12E-07,41.69511179,-6.015433925,0.046608601,-0.631306485,9.0302520650.067470572,-0.073455032,0.055950554,1,5.57E-07,41.81733866,-6.285033204,-1.001049042,-1.083238469,9.610232711-0.077176252,0.044739798,-0.066945618,1,2.39E-07,41.81462312,-6.303046368,-0.973810361,-1.413009015,9.130528476-0.138496737,0.135055383,-0.091834893,1,2.17E-07,41.80091883,-6.114756447,0.014818307,-1.179533725,8.3710982482.15E-04,-0.012267741,-0.025834376,1,-2.59E-07,41.80075809,-6.115852479,0.586863876,-1.25920153,8.4143772520.104633182,-0.069625551,0.067796963,1,2.14E-07,41.94800726,-6.134687478,0.36185315,-1.517024576,9.579224362-0.013268697,-0.170565403,0.078753639,1,-3.88E-07,41.94428706,-6.160049548,-0.664826096,-1.695251133,10.2329021-0.09009668,-0.040902364,0.019805954,1,7.18E-08,41.96522751,-5.991021669,-1.295504296,-1.46429009,9.973072327-0.158257114,0.040810252,-0.122544058,1,2.32E-07,41.96117747,-6.019296001,-0.922403767,-1.850771361,9.298129738-0.097186673,0.11460336,-0.199803714,1,-2.49E-07,42.0577206,-5.76726601,0.038113393,-2.838996833,8.552734529-0.027996139,9.00E-04,-0.05809778,1,-4.68E-07,42.06360693,-5.724205573,1.342361735,-2.500587602,9.3655299340.019120517,-0.120905536,0.057919347,1,-7.38E-08,42.0869162,-5.815494336,0.742188829,-2.651511214,9.756783011-0.013447209,-0.165271544,0.049958065,1,-4.22E-07,42.09605638,-5.748972075,-0.552422144,-2.775592364,9.88300138-0.064540753,0.016221032,-0.055772935,1,2.58E-07,42.30514214,-5.683174931,-0.80266806,-1.945555094,9.8991629880.042295591,0.110617811,-0.183632461,1,-3.50E-07,42.30300725,-5.699059197,0.507736478,-1.33756286,9.7627608120.146983343,-0.03093189,-0.132297656,1,5.57E-07,42.21294973,-5.797370093,2.236898243,-1.880742053,9.8044276930.042733907,-0.117565452,0.119221001,1,-3.87E-07,42.20499231,-5.855083202,1.425970885,-3.012127257,9.893697291-0.114852954,-0.150366358,0.086126245,1,2.53E-07,42.11259968,-5.602188922,-0.395533785,-2.935839615,9.928529626-0.00292602,0.034323709,-0.05625233,1,1.29E-07,42.11800219,-5.561441065,-0.5968723,-2.116916508,10.022535020.066434936,0.052886672,-0.208630571,1,9.78E-07,41.96222859,-5.582445138,0.261626534,-2.325099815,10.091819950.100330782,0.019896378,-0.169344306,1,5.86E-07,41.96738374,-5.543520732,1.770952885,-2.055105505,10.183994350.144897113,-0.023183145,0.004049379,1,-9.09E-08,42.00754299,-5.759069579,1.897943464,-2.636845356,9.8442635830.175447498,-0.121537773,0.03539057,1,5.06E-07,42.00708877,-5.762400622,0.659831155,-2.110751081,10.00974188-0.051815104,-0.005187482,-0.077058741,1,-2.08E-07,41.70597044,-5.886529664,-0.220875185,-2.090758762,10.13050419-0.093255625,0.134550382,-0.205144423,1,4.32E-07,41.7050399,-5.893108926,0.517587033,-2.058341094,9.61708455-0.01582902,0.034775327,-0.232745076,1,-3.39E-07,41.75149072,-6.211794757,2.195189112,-2.366198469,9.5679587890.081735512,-0.01952945,-0.018025238,1,7.62E-08,41.75171798,-6.210288336,1.96826104,-2.797131423,9.823329419-0.040537826,-0.058473669,0.009875234,1,-3.30E-08,41.82211678,-6.088873683,0.486050117,-2.366721358,9.952414671-9.12E-04,-0.009353108,-0.139528022,1,1.58E-07,41.8194718,-6.107020571,-0.08684085,-1.486853642,9.7590367630.101360369,0.022454385,-0.217238264,1,2.47E-07,41.87838101,-6.237608949,0.411439863,-1.862904056,9.6777523080.092219183,-0.023990701,-0.234466642,1,1.54E-08,41.8803747,-6.224240907,1.438662059,-2.711599629,10.0382321-0.036493482,-0.045042154,-0.12415182,1,-3.77E-07,42.11851209,-6.065046472,1.87693065,-2.248872762,10.13439513-0.053850302,-0.092932481,-0.113510104,1,2.26E-07,42.12426698,-6.024950836,1.066570476,-1.866180719,9.924019061-0.019770963,-0.032719564,-0.262836459,1,-5.02E-07,42.22091453,-6.060237957,0.971178874,-1.7469363,10.00623071-0.051695568,-0.009701391,-0.315947935,1,1.04E-06,42.22173309,-6.054517881,2.138658155,-2.722508203,9.6676189680.005833605,-0.08917346,-0.151547465,1,4.67E-08,42.27156766,-6.037082074,2.756448496,-1.883157571,9.8191150.077166669,-0.108942544,-0.132377075,1,-1.56E-07,42.26852437,-6.058380626,1.533247127,-2.39432196,9.876779398-0.01241298,-0.051384536,-0.250835378,1,1.96E-07,42.278343,-5.821780125,1.124650238,-1.978456442,10.05838033-0.031466801,-0.03861055,-0.342735939,1,8.10E-07,42.26920033,-5.887785385,2.526564808,-2.185499272,9.5825731510.049500357,-0.087194213,-0.203746448,1,-3.92E-07,42.45274286,-5.702526028,3.149865427,-1.733471523,9.6981347030.125911068,-0.120801353,-0.20587159,1,-3.59E-07,42.44802042,-5.737528201,2.099349507,-2.127334139,10.141253870.022497241,-0.062866081,-0.329022567,1,7.24E-07,42.46949446,-5.560957223,1.653591288,-2.092938179,10.5212043-0.077752224,-0.058277088,-0.368013705,1,1.97E-07,42.47007991,-5.556467399,2.45018345,-1.919297516,10.26506593-0.04069548,-0.077237396,-0.343203514,1,9.86E-07,42.27738293,-5.661167727,3.107805152,-1.830508386,9.9358051466.50E-04,-0.077192122,-0.296134641,1,2.67E-07,42.27220055,-5.699681655,2.649776374,-1.921994883,9.9431788910.038717777,-0.048497129,-0.347311026,1,2.20E-07,42.14818994,-5.75026541,2.468925532,-1.870989403,10.221403460.046888989,-0.045663567,-0.331456312,1,-6.69E-07,42.149972,-5.737180672,2.67614683,-2.114579321,10.36221332-0.018159598,-0.039288552,-0.372735753,1,4.62E-07,41.89694177,-5.919859302,2.86802003,-2.287710354,10.23073505-0.011666535,-0.028256449,-0.343284307,1,3.68E-08,41.8984439,-5.909248945,3.02457484,-2.253608201,9.7534482710.019800094,-0.046059573,-0.287283457,1,-3.47E-07,41.82560824,-6.062306239,2.292369194,-1.65583858,9.9683183440.087486345,-0.052837957,-0.369804685,1,-1.44E-06,41.82953113,-6.035156634,1.601773638,-2.239718666,10.223418830.006849952,-0.008787919,-0.481221955,1,-1.04E-07,41.89060495,-5.961537015,2.709891846,-1.69068747,10.822172740.016722847,-0.096569115,-0.368253671,1,-1.47E-07,41.8841278,-6.006929832,3.323597852,-1.338693356,10.43915780.099236299,-0.098694216,-0.247461646,1,4.10E-07,41.8243409,-6.126096845,2.566092224,-1.556803575,10.047265320.121766576,-0.026313108,-0.345085462,1,7.86E-07,41.8208374,-6.150014441,1.537065714,-2.050245182,10.357718440.038416411,-0.046559936,-0.453367202,1,-7.07E-07,41.96342553,-6.31098913,1.980430988,-1.228861561,10.81297311-0.003524394,-0.044380435,-0.417403138,1,9.09E-07,41.96811603,-6.279719424,2.583509216,-1.58423976,10.534963530.034438217,-0.09331795,-0.316369865,1,5.89E-07,42.0183922,-6.11938999,2.057743036,-1.383410077,10.41802630.059743559,-0.110170087,-0.414572067,1,6.07E-07,42.02849239,-6.049624249,1.269080862,-0.884899742,10.493518030.072693882,-0.075179904,-0.509029306,1,-5.17E-07,42.06748963,-6.149354442,1.63238837,-1.387256998,10.262386730.135248579,-0.095846646,-0.420618433,1,-4.84E-07,42.0701875,-6.13092044,2.530835374,-0.763261667,10.794841530.075776416,-0.119117976,-0.423868164,1,5.87E-07,41.97845888,-5.81216642,2.549132376,-0.936918476,11.0566104-0.023398705,-0.112317197,-0.47690475,1,-2.45E-07,41.97561909,-5.83263767,2.342531122,-1.085151933,10.370928120.104077881,-0.094609298,-0.502522089,1,-4.25E-07,42.09473611,-5.563361584,2.536734028,-1.210848259,9.9574655770.194305287,-0.082283785,-0.431471388,1,9.82E-07,42.09411332,-5.568063595,2.568308474,0.221751047,10.674374290.114704187,-0.083137181,-0.46082997,1,-3.51E-07,41.86214649,-5.568986595,2.76659956,-0.345229332,11.035668010.073185857,-0.094102897,-0.495023817,1,-4.53E-08,41.86510765,-5.5467312,3.065883147,-0.592086219,10.070719240.137442219,-0.125955422,-0.44413461,1,3.43E-07,41.76088314,-5.480188462,2.78424283,1.82837196,9.9932367390.297033066,-0.129809473,-0.524421509,1,2.62E-07,41.76792053,-5.426273994,2.536003766,1.180616018,10.422473480.170337623,-0.11265247,-0.522235117,1,-3.59E-07,41.63742285,-5.258615644,2.801317323,-0.428536299,10.860269760.064314565,-0.097525187,-0.538487623,1,2.50E-07,41.64295291,-5.21469363,2.959968561,-0.038858998,11.271621280.017289674,-0.118486202,-0.59704403,1,1.86E-07,41.41068986,-5.350818202,2.93063244,-0.478717207,10.841427830.057326531,-0.116803603,-0.615432055,1,3.66E-08,41.40629649,-5.384692596,2.718102678,-0.398511933,10.329299360.283902801,-0.104037885,-0.520465868,1,5.57E-07,41.34134682,-5.759721939,2.840488266,0.325156574,10.418809580.338782889,-0.125251011,-0.540206398,1,-7.98E-07,41.33604498,-5.797620771,2.924324508,0.115094925,10.928454290.267404255,-0.097957259,-0.558092524,1,1.27E-07,41.37984558,-5.807927316,2.666775921,-0.422128476,11.393426140.138278481,-0.049869769,-0.628834726,1,4.00E-08,41.37375796,-5.851090669,3.076171497,-0.586404433,11.445335770.04853525,-0.029652054,-0.615090934,1,1.87E-07,41.55563102,-6.172737824,3.319320559,-0.11376855,11.008514590.196346981,-0.025279962,-0.589872492,1,-6.01E-08,41.5634962,-6.119505122,3.090547331,-0.611784078,10.553264930.291024334,-0.026980204,-0.545598008,1,7.64E-07,41.67711622,-6.148710776,2.675553105,-1.176982765,11.197071690.17699886,-0.017024152,-0.585419149,1,-3.01E-07,41.68011592,-6.128398899,2.160661902,-0.763464187,11.563643360.20110305,0.010004403,-0.694075277,1,1.21E-07,42.01603266,-6.097888758,2.845412466,-0.852998726,10.868668830.376706367,-0.034775508,-0.601678724,1,3.57E-07,42.01072952,-6.134310521,3.484540257,0.3553223,10.895108110.411785165,-0.024339625,-0.514560206,1,-4.43E-07,42.05387237,-6.09390484,3.180094826,-1.112918334,11.376339920.005910561,0.011276219,-0.679747183,1,7.96E-07,42.04802859,-6.134107279,2.054365265,-1.989573716,11.0617744-0.014640154,0.04586734,-0.685685747,1,-3.80E-08,42.20850118,-6.203983705,2.278508825,-0.395486324,9.6724507820.251788366,0.031392972,-0.582787136,1,-1.17E-07,42.20517065,-6.226580148,2.586258848,0.579651261,9.2784578930.317121129,0.082629905,-0.698518569,1,-5.55E-07,42.18669969,-5.882120275,2.897938112,0.972073832,10.015872860.166659461,0.124826784,-0.831850765,1,-2.09E-07,42.18536507,-5.891620485,4.961016274,-1.167667764,8.9532934140.216769576,0.082071424,-0.473179718,1,2.32E-07,42.27329777,-5.722703418,3.388345556,-3.675016393,9.4130210520.119054871,-0.035066686,-0.395957735,1,2.48E-07,42.27638977,-5.699816685,-0.928565964,-0.535401314,11.532949710.074576233,0.084567399,-0.820896123,1,1.61E-07,42.10921445,-5.724927596,-2.10506246,0.571058919,10.874823620.217666438,0.099424643,-1.273073893,1,5.63E-07,42.10319497,-5.769017378,2.9028139,-1.020734218,9.8035159190.440594483,0.011487367,-0.861350728,1,-1.23E-07,42.08223152,-5.626404379,5.863539048,-1.126310258,12.364045160.128261502,-0.230002943,-0.358851271,1,4.62E-08,42.07579119,-5.674304113,3.477581652,-1.948684557,13.76272454-0.073271025,-0.04796452,-0.371520426,1,-7.05E-07,41.93441932,-5.764266632,-1.890277559,-1.59978687,11.97868590.004664886,-0.040590953,-0.979434418,1,-2.79E-07,41.93318141,-5.773253211,-2.191897169,0.585180324,10.076708660.088627257,-0.073806821,-1.089133564,1,1.32E-06,42.11601782,-5.68015907,2.453368499,0.42211038,8.9357459480.146937409,-0.213779948,-0.717245053,1,-5.98E-08,42.1187926,-5.659552023,3.699023782,-0.834559029,7.8161262220.708459244,-0.486144348,-0.292325634,1,-3.72E-07,42.24645859,-5.900095953,0.091436336,0.644762322,10.518268380.67830838,-0.343954338,-0.773089367,1,6.27E-08,42.25305105,-5.852652426,-2.793254391,-3.115601656,13.156665520.193676766,-0.009605406,-1.274292729,1,-1.47E-07,42.25734089,-5.881051239,0.908225043,-2.330248298,14.605900410.178489059,-0.122367582,-0.929866249,1,-4.30E-07,42.25830514,-5.874102119,4.883951651,-1.967640373,13.395644640.719902521,-0.234813944,-0.301412323,1,5.58E-07,42.1013003,-5.974233933,3.643832006,-1.933473104,12.952701550.703420954,-0.163602542,-0.29957282,1,3.16E-07,42.10264627,-5.964756882,-1.299381236,-2.215063021,15.058209580.402983759,-0.098949172,-0.788231599,1,-2.59E-07,41.95620799,-5.942793,-2.595118288,-2.195281916,16.043974220.320886686,0.071031309,-0.918716285,1,1.97E-07,41.94878876,-5.99495477,-0.047178788,-3.455268924,14.586265040.304728327,-0.106330301,-0.56042583,1,-1.22E-07,42.00694065,-5.748533814,0.83685073,-0.431112713,13.073188990.606321815,-0.190251406,-0.568341729,1,1.43E-07,42.00048305,-5.795569586,0.433490505,0.194146665,11.277970980.875317369,-0.227562135,-0.584018758,1,-6.89E-07,42.2316313,-5.738839627,0.177428794,-0.797408607,12.193997790.566162484,-0.238018108,-0.62869973,1,2.78E-07,42.22870627,-5.76032011,-0.704081217,-3.177533298,13.279395290.077713447,-0.179071055,-0.666729808,1,-5.75E-07,42.17321535,-5.864505132,-1.126126717,-2.25519159,11.728194140.14387102,-0.168067109,-0.658872465,1,-1.96E-07,42.18123881,-5.806464467,-1.075518889,-0.195519019,8.4925916510.805886427,-0.382206902,-0.729384434,1,-1.53E-07,41.98100927,-5.819636477,-0.025769628,0.775264342,8.1940565160.988917576,-0.334880984,-0.744574162,1,6.90E-07,41.98186818,-5.81344921,2.0116571,-1.601254741,11.647544910.525486349,-0.402825577,-0.357955366,1,3.16E-07,41.77268485,-5.759472096,1.046088028,-2.785695369,13.8300187-0.012005329,-0.396904797,-0.434960561,1,-1.37E-08,41.76658414,-5.803551835,-2.078503408,-0.556629719,11.799335050.042249856,-0.12373747,-0.884465612,1,-2.76E-07,41.76499846,-5.926743627,-1.531218035,2.002545058,8.3903777770.607224548,-0.211902708,-1.117601072,1,3.12E-07,41.76103652,-5.954571824,2.754653317,0.812363191,8.8616982350.777004839,-0.226599985,-0.575361964,1,3.68E-08,41.84344388,-6.31535898,3.646221401,-2.488892532,12.050837770.330951121,-0.40989182,-0.429170416,1,9.03E-08,41.84951951,-6.274999606,0.395352147,-3.539165695,14.052048880.001683311,-0.085368002,-0.673632994,1,4.65E-07,42.11293646,-6.295480667,-1.099475163,-1.439872213,12.226110310.180922432,-0.035857322,-0.802227546,1,1.59E-07,42.11353053,-6.291536084,0.521132572,0.463724207,9.7900784840.357523355,-0.069963508,-0.768371603,1,-1.92E-07,42.31396901,-6.586012556,2.012599229,0.142232544,9.4751547770.534019104,-0.109726176,-0.61293613,1,8.02E-07,42.31311928,-6.591467668,0.985303344,-1.958229713,11.556826570.245239901,-0.07538049,-0.647804086,1,-1.95E-07,42.18120245,-6.551767712,-0.205660044,-2.500360853,13.190800720.055407579,-0.042370911,-0.719230409,1,1.03E-07,42.17308773,-6.603837866,-0.578280417,-2.791490955,11.982523960.069986236,-0.047423841,-0.638988087,1,6.58E-07,42.14755615,-6.503423164,-0.345000159,-0.25779441,10.513530470.515540969,-0.143546289,-0.653862571,1,3.96E-07,42.14331004,-6.530866144,-0.489807967,-0.98848049,9.5634841160.500207167,-0.104948388,-0.725708932,1,1.82E-07,42.0517435,-6.474006841,-0.407906095,-2.502551449,11.002921160.307066366,-0.050295885,-0.756685105,1,1.98E-07,42.05493207,-6.45326862,-0.452862795,-2.774031783,12.408516270.074962525,-0.051438206,-0.709063316,1,1.33E-07,42.24146983,-6.516040187,-0.825541378,-3.623101171,11.031931660.133218697,-0.064780764,-0.613545393,1,3.35E-07,42.24503702,-6.492893791,-1.377348854,-1.177396866,9.6320097770.386562111,-0.138702132,-0.670782031,1,2.83E-08,42.118285,-6.235874819,-1.239132936,0.489568586,9.9845556180.602367056,-0.198516757,-0.703322221,1,1.19E-08,42.11771673,-6.239717342,-0.580645577,-1.846072562,10.906442820.344808657,-0.134441679,-0.697057091,1,-1.98E-07,42.05970527,-5.936576969,-0.462426411,-3.099066751,11.687988440.121315877,-0.102586172,-0.661687699,1,-3.38E-07,42.04980603,-6.006271534,-1.493610925,-2.699079103,10.94733380.178760002,-0.101565627,-0.701517246,1,2.55E-07,41.76712936,-6.048554812,-1.721478203,-0.830827279,10.42271180.401488565,-0.156645716,-0.757853733,1,3.26E-07,41.76502264,-6.063091297,-1.179591698,-0.855845921,10.203409280.561408977,-0.239695921,-0.646266305,1,-9.34E-07,41.62257247,-6.042078153,-0.337386472,-2.100637588,10.814615320.428303128,-0.227356719,-0.487839456,1,6.79E-07,41.62312605,-6.038315287,-0.363627582,-1.561931513,11.675299610.236303937,-0.154192173,-0.653669412,1,-3.18E-07,41.42740363,-6.141932233,-1.503270807,-2.25925385,11.067110950.161968589,-0.069400351,-0.658127869,1,-1.67E-07,41.42448516,-6.1615976,-1.917225805,-1.497206155,10.024907470.317420479,-0.110763682,-0.643311711,1,-1.90E-08,41.50228565,-6.048116143,-1.010085677,0.025025099,10.108489720.513654828,-0.21370721,-0.527285615,1,-3.49E-07,41.49987881,-6.06463668,-0.414354812,-0.478921099,11.097747360.479715888,-0.265729063,-0.477617859,1,-2.91E-07,41.59921067,-6.276012402,-1.387978606,-1.889643608,11.687216480.25248965,-0.124706694,-0.572165605,1,-6.53E-08,41.59725994,-6.288961807,-1.784146391,-1.706308058,11.215602110.18625729,-0.042535387,-0.591307104,1,-3.59E-07,41.40598621,-6.31261833,-1.271139961,-0.417028898,10.261525350.337738299,-0.110234424,-0.540397782,1,-2.81E-07,41.41047945,-6.283062545,-1.821071755,-1.050799837,9.7436896620.432098949,-0.135785607,-0.50393007,1,-2.67E-07,41.60015036,-6.442458301,-2.037129159,-0.675843385,10.848679180.33835706,-0.102703562,-0.502124511,1,-7.60E-08,41.60209814,-6.429868747,-1.591331854,-1.388373914,11.117765480.261534661,-0.092585432,-0.387851812,1,5.98E-07,41.67690363,-6.579753301,-1.163479797,-0.864513416,10.653698170.296166358,-0.093834748,-0.342864183,1,7.86E-10,41.66676607,-6.643678413,-2.426368836,-0.261725263,9.6666152220.332795624,-0.048735295,-0.496491325,1,-4.16E-08,41.62951006,-6.652309019,-2.809655974,0.318247763,9.3419380850.380881783,-0.013033814,-0.529610451,1,-5.19E-07,41.62490866,-6.68102575,-1.986464511,0.338140182,10.204388670.307710688,-0.073598726,-0.401717485,1,-5.59E-07,41.65116682,-6.491307631,-1.811176247,-0.002572004,10.204463960.302255222,-0.068429182,-0.303701362,1,-3.99E-07,41.64940101,-6.502631154,-2.668698385,0.333698019,9.7097401240.207601053,0.041450735,-0.325599327,1,-1.42E-07,41.67990788,-6.536882049,-2.90283308,1.370760515,9.5186221560.263526807,0.03884784,-0.361073743,1,-1.26E-08,41.68458005,-6.50703715,-3.161666358,1.125815702,9.0333733390.372490474,0.028358922,-0.400889115,1,-1.11E-07,41.76190603,-6.486588882,-3.320152235,0.542064119,9.4000030950.305525519,0.00568897,-0.223230246,1,-1.07E-07,41.76405746,-6.472722024,-2.636124093,1.779628319,10.151291690.241858011,0.052414116,-0.232587867,1,1.05E-07,41.6398085,-6.475114604,-3.574278419,0.724088942,8.3914552030.205127939,0.02642677,-0.115947758,1,-1.86E-07,41.64759139,-6.42486621,-2.99906772,2.74692339,8.4193148780.245651476,0.007750253,-0.162266007,1,3.00E-07,41.86906573,-6.426946845,-3.443365582,3.335207175,8.8729140320.320662252,0.101911026,-0.241392082,1,-5.74E-07,41.86877264,-6.428841924,-4.506628494,2.13967728,8.6444580.167800204,0.159826365,-0.212564245,1,-6.79E-07,41.77729446,-6.474224492,-3.486664458,2.700849436,8.8510219030.124212404,0.080869694,-0.133559718,1,-7.17E-08,41.77547744,-6.485918875,-3.168332042,3.162657704,8.2308547030.143451443,0.016531418,-0.081657391,1,2.44E-07,41.89323476,-6.290763156,-3.747356255,3.246957131,7.4830752940.17763498,0.012587517,-0.082471717,1,6.93E-07,41.89296335,-6.292594346,-4.072807409,3.898509046,7.907745810.266535294,0.02379781,-0.160251145,1,-6.30E-08,42.13989655,-6.443769273,-3.992051574,3.745548232,8.7348267830.225367197,0.047479454,-0.159088659,1,-4.17E-07,42.1476699,-6.392763367,-3.595676777,3.091601114,9.3466074770.066520773,0.03516866,-0.122854005,1,-1.07E-07,42.15152986,-6.659289651,-3.239081474,2.588899313,8.781847573-0.028327811,0.044906921,-0.086805789,1,2.68E-07,42.15389913,-6.64430162,-3.149305888,2.68143756,8.033362001-0.018414135,-0.079216724,-0.056221298,1,-4.34E-07,42.29846808,-6.716325541,-3.393631983,3.727292756,8.1370055740.131346844,-0.065121059,-0.116563045,1,4.06E-07,42.28993234,-6.769873382,-3.786653411,4.048929489,8.926828690.248383451,0.044941622,-0.276475964,1,-1.15E-07,42.21238149,-6.928882994,-3.468728057,2.634866156,9.5111684520.143535888,0.024960855,-0.251717066,1,-4.72E-07,42.20254578,-6.988533683,-1.946775053,1.674549476,9.825840679-0.069265185,-0.064404286,0.00238646,1,-3.56E-07,42.29756813,-6.695208198,-1.815403586,1.484192306,9.61254182-0.254069777,-0.151087574,0.030435234,1,1.72E-07,42.29740717,-6.696208835,-2.60506113,2.532256676,8.802309322-0.068465002,-0.055264103,-0.043632204,1,-2.99E-07,42.00156548,-6.540227326,-2.786704994,3.913783727,8.9413076210.131481467,-0.001942552,-0.290439583,1,-5.29E-07,42.01382317,-6.461033879,-2.375599978,3.151945006,9.2008672640.179127333,0.030673329,-0.286565234,1,-3.64E-07,41.91490254,-6.308829908,-2.141372692,0.778495913,9.287014871-0.087333134,-0.024452227,-0.137755647,1,-4.45E-08,41.92389254,-6.248764982,-1.649516055,0.060667243,9.548523965-0.22007143,-0.036603165,0.053243427,1,-9.22E-08,41.87058386,-6.428623586,-1.184315786,1.681632129,8.931308547-0.004180211,-0.186459479,-0.023202645,1,5.38E-07,41.86762027,-6.447868033,-1.851813731,2.932530635,8.894134270.111818122,-0.047830171,-0.115371726,1,-5.42E-07,41.68736465,-6.428347839,-3.011999638,2.279363409,8.7892983920.114966674,0.142555382,-0.249529141,1,-1.12E-07,41.67875694,-6.483932991,-2.498561865,1.13386928,8.942008151-0.034433045,0.051554168,-0.227117125,1,-4.94E-07,42.01081892,-6.448201592,-0.661601389,0.449104811,8.9110077370.030533052,-0.202941591,0.16845663,1,2.18E-07,42.01380027,-6.428736685,-1.269478712,1.492859145,8.758679443-0.101819856,-0.247223972,0.073735664,1,-4.85E-07,41.94313752,-6.162517385,-2.795119117,2.892174001,9.4227894110.053422404,0.0589146,-0.056034389,1,-2.07E-07,41.94382973,-6.157785181,-3.016423119,3.313889522,9.111379395-0.042187878,0.050894106,-0.008660834,4,-1.42E-07,40.06466037,-13.01767666,-0.48734181,-0.842689247,9.645268797-0.020421119,0.030058,0.022801351,4,4.38E-08,40.00994692,-12.7386908,-0.25071497,-0.785942769,10.075240560.067855521,-0.044254576,-0.006819464,4,-6.71E-08,40.02744211,-12.6836221,0.024656876,-0.772893749,9.9654991330.047752076,-0.122508045,-0.037185575,4,-1.14E-07,40.03173442,-12.53383435,-0.148728849,-0.613767135,9.5943182270.059946646,-0.093277758,-0.062931324,4,3.77E-07,40.03386082,-12.52703518,-0.61569245,-0.568995164,9.483601654-0.100806295,0.017786685,-0.046248093,4,1.86E-08,40.04397679,-12.59710194,-0.573233217,-0.354948786,9.32802812-0.084734846,0.075291229,-0.022289007,4,8.85E-08,40.04127784,-12.60568207,-0.552862071,-0.378285747,9.640758061-0.036956357,0.021400616,0.030911324,4,1.82E-07,39.96398841,-12.589411,-0.316155382,-0.414120025,9.710265216-0.006203861,-0.00363933,-0.005373003,4,-4.06E-07,39.9529579,-12.62435908,0.016781364,-0.252408227,9.5958618090.010653328,-0.042204031,-0.012317298,4,-3.43E-07,39.83556316,-12.47570991,-0.131726048,-0.414844226,9.623921358-0.010314827,-0.021859196,-0.019185279,4,8.12E-07,39.82917811,-12.49608961,-0.024856073,-0.197338276,9.595242469-0.091208404,0.041167359,-0.033972004,4,1.38E-07,39.64810705,-12.61324847,-0.275765949,-0.35110262,10.03552391-0.037896054,0.019363052,-0.015486404,4,4.95E-07,39.65448346,-12.59319603,-0.117457626,-0.138497478,9.8884113830.010360854,-0.004668475,0.007173962,4,-7.47E-08,39.64916796,-12.74134806,-0.298786717,-0.290148758,9.7836808050.013908718,0.00294828,0.013470708,4,3.74E-07,39.66624358,-12.68808919,-0.645853314,-1.054276155,9.96896376-0.001036229,-0.023608759,-0.025710459,4,2.02E-07,39.78813362,-12.89145518,-0.380039813,-0.820154531,9.7352946-0.042901274,-0.029823948,-0.041628868,4,3.72E-07,39.79561407,-12.86835057,-0.331504856,-0.497019672,9.758298355-0.01172503,0.015845503,-0.009517166,4,8.63E-07,39.84328195,-13.14822905,-0.266178245,-0.21711322,9.899891712-0.003183943,-0.017622446,0.007139719,4,3.03E-08,39.84175898,-13.15286614,-0.160447527,-0.390700922,9.719283740.019803344,-0.003186967,0.018586988,4,2.91E-07,39.67780001,-13.08730385,-0.242688332,-0.571726141,9.418411588-0.079018507,0.034910701,-0.009002689,4,6.15E-08,39.66528617,-13.12520087,-0.356820881,-0.819552048,9.708942928-0.093931739,0.034485924,-0.034836548,4,1.47E-07,39.72457158,-13.26463371,-0.264306332,-0.36389995,9.886880897-0.00821485,-0.032184427,0.00319022,4,1.87E-07,39.70887636,-13.31154314,-0.489176321,-0.35281175,9.8292134380.038916259,-0.0238429,0.019490315,4,-5.42E-07,40.03324986,-13.48663892,-0.517611866,-0.512390102,9.5032271840.034308359,-0.01191098,0.041867505,4,-5.02E-07,40.04898928,-13.43982987,-0.413128339,-0.686371344,9.421608469-0.029232516,0.012141151,0.018192497,4,-2.25E-07,40.18312259,-13.33743342,-0.15207404,-0.736228118,9.506227775-0.119219637,0.031120415,-0.052103521,4,7.24E-07,40.20273101,-13.27822343,-0.228341832,-0.60015556,9.848540613-0.098300751,0.041710008,-0.020683056,4,-5.12E-08,40.21186903,-13.21390911,-0.527454587,-0.402345378,10.221600840.025790754,0.035818347,0.013149293,4,-1.11E-06,40.22086295,-13.18650671,0.033616233,-0.163708442,9.9542808990.024052934,-0.026147255,0.010174956,4,-7.55E-07,40.30523155,-13.10740552,-0.120655223,-0.662162503,9.7802863840.030372675,-0.011231787,-0.003333426,4,-3.15E-07,40.28668975,-13.16430591,-0.309531806,-0.896428336,9.750820422-0.058027361,0.013665306,1.61E-04,4,9.41E-08,40.21585602,-13.25357364,-0.406596929,-0.659964873,9.691565319-0.065957347,0.045122134,-0.040545619,4,1.40E-08,40.20622364,-13.28277455,-0.323207608,-0.445452978,10.166954320.054512427,-0.021044935,0.017166271,4,1.68E-07,40.20939083,-13.20665968,0.066802595,0.017286863,9.6102538070.02924528,-0.027397642,0.014968016,4,-2.27E-07,40.22784427,-13.15033247,-0.365897378,-0.64345589,9.522364681-0.009860736,0.041713865,0.005051318,4,-4.06E-07,40.45502572,-12.91075229,-0.492988842,-0.841988218,9.465205087-0.017392761,0.038297625,0.009902455,4,3.43E-07,40.46617329,-12.8757713,-0.178034286,-0.544996711,9.6535782730.027184353,0.003465575,0.004548406,4,2.29E-07,40.30318228,-12.81117912,-0.0251041,-0.5308717,9.7585424290.035676435,-0.044574465,4.50E-04,4,-2.04E-07,40.29522236,-12.83618939,-0.199445545,-0.524352586,9.8342261590.04564762,-0.045250719,-0.025043083,4,6.07E-07,40.10746784,-12.84949079,-0.369337199,-0.497708393,9.5571392690.02354832,-0.028822698,-0.004391924,4,-5.37E-07,40.08775837,-12.9108681,-0.593616112,-0.600249656,9.4198895040.005871738,0.039768624,0.007563872,4,-4.58E-07,39.95051106,-13.09056391,-0.374061664,-0.400897034,9.043502213-0.07442616,0.096085302,-0.011236288,4,-5.18E-07,39.93845453,-13.12730523,-0.360062502,-0.430724601,9.80708305-0.078178581,0.030817988,-0.026485959,4,-1.70E-07,39.99929656,-13.0982465,0.023342393,0.032948399,10.098856460.051937345,-0.061462265,-0.016342929,4,3.70E-07,40.00567065,-13.07876499,-0.094348746,0.180086411,9.8963330120.058243674,-0.109795041,-0.004220821,4,-2.67E-07,40.06614097,-12.88672135,-0.806897794,-0.238831653,9.4816769720.017225057,0.011060249,0.007848163,4,1.23E-07,40.08853127,-12.81689731,-0.718821607,-0.353740744,9.627234289-0.008826012,0.065783267,0.048939382,4,3.87E-07,40.18049707,-12.78137815,0.030852545,-0.019128636,9.973527937-0.069954874,0.096707187,0.00643777,4,-1.12E-07,40.19105562,-12.74813308,0.369513993,-0.270855204,10.40305843-0.043300951,-0.028203392,-0.047190048,4,8.27E-07,40.28471739,-12.84511529,-0.119950374,-0.283099363,10.16659268-0.017733366,-0.046201323,-0.047462984,4,3.30E-07,40.26992371,-12.89143017,-0.632810268,-0.135486006,9.753095563-0.035833409,-0.034782663,-0.008656882,4,-2.26E-07,40.0796031,-13.24898967,-0.741787418,0.22762746,9.285357295-0.006247292,0.015509868,0.025763432,4,1.19E-07,40.05716234,-13.31668109,-0.670678312,-0.034776954,9.726827212-0.011223709,0.028462884,0.033096161,4,-2.31E-07,40.10423077,-13.33046795,-0.191609059,-0.060344337,10.033354110.010502231,-0.020798463,0.015564321,4,-1.50E-07,40.09797789,-13.34927873,0.16136766,-0.155041694,10.147361980.019396287,-0.06752061,-0.011881488,4,-3.72E-07,40.14294187,-13.17971272,0.030846738,-0.367381277,9.745308095-0.013829713,-0.067687803,-0.018258438,4,-4.04E-07,40.15704463,-13.13666135,-0.467920905,-0.570324614,9.457459156-0.062161352,-0.005617478,-0.021305421,4,1.09E-07,40.29785793,-13.1480641,-0.418475718,-0.291144441,9.568756003-0.089457029,0.037521711,0.021174324,4,-4.97E-07,40.30401755,-13.12918221,0.057205934,0.271960012,9.7689945350.023513421,0.016030372,0.014934628,4,-8.68E-08,40.36441815,-13.13180906,0.004984727,-0.151924186,10.23016830.04643249,-0.072542745,0.009693214,4,1.99E-07,40.35430074,-13.16286493,0.01529092,-0.375474555,9.9115705280.054515528,-0.072524937,0.012579277,4,5.17E-07,40.4108441,-13.44615442,-0.286543789,-0.508850169,9.769050487-0.012932517,-0.046485722,-0.012650476,4,3.17E-07,40.40310421,-13.46942633,-0.391593883,-0.623170277,9.722165945-0.049884488,0.021136516,-0.011429718,4,4.66E-10,40.33633327,-13.41887257,0.010776305,-0.235609116,9.836898841-0.061248822,0.043367902,-0.014489382,4,-1.82E-07,40.3369044,-13.4171594,0.238247117,0.069546766,9.961081983-0.024202569,0.005474313,0.008239541,4,-5.67E-07,40.51925852,-13.51295121,0.059327357,-0.027635837,10.03617486-0.003216492,-0.021165378,-0.018845734,4,3.04E-07,40.54343813,-13.44023018,0.003951127,-0.086680379,9.7986173590.013368572,-0.01897446,0.013662616,4,-2.61E-08,40.45909081,-13.1826038,0.0124908,-0.032089864,9.5165907150.028725775,0.0114139,0.006094961,4,-3.86E-07,40.4765535,-13.12887267,0.017827925,-0.398719367,9.6889090370.001367616,0.02192829,0.00653328,4,6.27E-07,40.72200347,-13.23362029,0.082215334,-0.537504956,9.917434747-0.014188608,0.011382444,-0.013622469,4,-7.53E-07,40.71107238,-13.26720422,0.144619367,-0.307193199,10.03342213-0.005512688,-0.052396975,-0.052496064,4,4.71E-07,40.64292856,-13.24957123,0.040847461,-0.062402812,9.874483697-0.004720152,-0.088669409,-0.060727105,4,4.65E-07,40.61857863,-13.32401467,-0.387039416,0.151415895,9.366379962-0.012484437,0.002312924,-0.017577433,4,2.02E-07,40.65524904,-13.26526183,-0.395235042,0.342179621,9.022353826-0.045308661,0.111884822,0.040130609,4,2.52E-07,40.64930963,-13.28346466,-0.108861118,-0.049893261,9.498727446-0.007146082,0.132703962,0.017643467,4,6.12E-07,40.4972662,-13.37831588,0.445706787,-0.487019647,10.05202044-0.026415075,-0.021626142,-0.027132242,4,2.83E-07,40.51296153,-13.3307257,0.33337987,-0.465681789,10.06454766-0.056823885,-0.076283089,-0.102189232,4,3.46E-07,40.45441289,-13.36064798,0.050443959,0.322611476,9.603214802-0.085646596,-0.051450818,-0.079149853,4,-4.34E-07,40.44818233,-13.37949898,-0.974387116,0.49238111,9.4401159530.005637828,0.01607074,0.022943675,4,-4.86E-07,40.620487,-13.38535109,-0.908482002,0.462290384,9.6911033610.046490334,0.10485595,0.072504528,4,-2.99E-07,40.60802162,-13.42311785,-0.375945476,-0.325610024,10.267176480.054334487,0.066696432,0.062629111,4,-2.26E-08,40.37448297,-13.39420187,0.739550232,-0.371061029,10.282084910.02419789,-0.07564749,-0.03822348,4,1.32E-07,40.34546164,-13.4813837,0.624114076,-0.440157398,9.954912049-0.044362582,-0.173795759,-0.11266688,4,-4.56E-07,40.32712251,-13.64149863,-0.388965244,-0.175450176,9.544284251-0.07251278,-0.058075863,-0.099356319,4,3.48E-07,40.31872908,-13.66627639,-0.770993189,0.662594683,9.217769092-0.070733975,0.125109086,0.313188805,4,-2.92E-07,40.15635766,-13.39112113,-0.615988403,0.782661828,9.8283273120.010016888,0.089445037,0.031737208,4,-4.00E-07,40.16939227,-13.35198824,0.069531407,0.328453529,10.274053060.070591391,-0.028549056,0.066799057,4,3.76E-07,40.16882906,-13.0595244,0.556396844,-0.022495432,9.9962042370.069179384,-0.099965286,-0.035256157,4,2.42E-08,40.17865089,-13.0292609,0.232643484,-0.446122308,9.652001148-0.040333185,-0.105189035,-0.054503361,4,-2.49E-08,39.98514509,-13.03034983,-0.171324915,-0.110785766,9.258444507-0.085515336,-0.003520348,-0.064813473,4,1.00E-08,39.98087231,-13.04344442,-0.108418071,0.441305334,9.634407813-0.051096065,0.006035153,-0.005659663,4,6.08E-07,40.10897541,-12.94990289,-0.072731055,0.538772969,10.027544550.038237634,-0.005141085,0.014544856,4,9.66E-08,40.09700838,-12.98690952,0.008435655,0.176344684,9.9370211130.044544766,-0.036140902,0.025904189,4,-3.13E-07,40.09862007,-12.90708353,0.258475492,0.052889644,9.57068564-0.02013557,-0.048430792,-0.029749839,4,-1.42E-07,40.09354797,-12.92283377,0.167173479,-0.158535393,9.65544614-0.032863159,-0.067966506,-0.051146694,4,-3.74E-07,39.95846817,-12.93176918,-0.039836303,0.055062355,9.727993839-0.054174406,-0.061987144,-0.024480246,4,4.68E-08,39.9736641,-12.8847225,-0.333614186,0.15546712,9.9246020730.010860561,0.007305284,0.032398283,4,-3.47E-07,39.91322446,-12.65299528,-0.050111847,0.314451093,9.8060684370.054535448,0.04118048,0.043987736,4,1.59E-07,39.92796347,-12.6064147,0.396204827,-0.171272347,9.7913642680.026087982,-0.030349358,0.022984998,4,9.46E-08,39.89621638,-12.63933583,0.590457656,-0.391624666,9.471511626-0.060898579,-0.020853964,-0.046682296,4,5.53E-07,39.89506601,-12.64295649,0.349106696,-0.345286911,9.670642419-0.130043041,-0.063298374,-0.082860451,4,-5.62E-07,40.0867381,-12.68544416,0.15831673,0.475016976,9.754209919-0.062068172,-0.023039447,-0.031372067,4,1.52E-07,40.08275489,-12.69801917,-0.031273939,0.798905492,9.917074930.03459953,0.009119771,0.050554424,4,4.68E-07,39.90447342,-12.97805847,-0.285470944,0.074475742,9.8139797410.092851883,0.001671472,0.033504885,4,4.00E-07,39.8937228,-13.01106382,0.262391439,-0.373271275,9.411243071-0.002828792,-0.0216553,0.012605726,4,-4.62E-07,40.00252109,-13.21537009,0.095747633,-0.800218923,9.73659047-0.062024679,-0.034385058,-0.077726506,4,-1.45E-07,39.99380306,-13.2417242,0.393807265,-0.038059024,9.832141469-0.091913674,-0.094476141,-0.065361978,4,-3.75E-07,39.95907803,-13.12435514,-0.098596324,0.551347166,9.953452226-0.026204184,-0.058706405,-0.050683196,4,-3.46E-07,39.99862057,-13.00333133,-0.36451112,0.804671823,9.8640202660.037055878,0.003982537,0.053301988,4,6.29E-08,39.9594034,-13.04034083,-0.699432949,0.077181355,9.6755054260.097521977,0.069114684,0.049986909,4,7.76E-07,39.98008568,-12.97679814,-0.030570409,-0.332825195,9.6355581630.009408662,0.020480749,0.052911944,4,-1.72E-08,40.06344239,-12.80222507,0.559422696,-0.652908902,9.6289963310.016686761,-0.088984407,-0.06028163,4,-1.18E-07,40.06049349,-12.81145513,0.438311172,-0.575373157,9.461286644-0.056259202,-0.094782063,-0.096011437,4,-2.30E-07,40.04482324,-12.93608564,-0.494160153,-0.32077686,9.561358921-0.114283233,-0.014732015,-0.081393982,4,1.50E-07,40.03142189,-12.97747185,-0.295976309,0.73932826,9.561597197-0.01223775,0.024967944,-0.00992635,4,-4.99E-07,40.2712581,-12.96339333,-0.3000864,0.696714107,10.099924840.055946808,-0.007691181,0.046318936,4,3.40E-07,40.26185805,-12.99257118,0.190375769,0.518399447,9.672517140.064481019,-0.007937475,0.03042641,4,-6.71E-08,40.34630244,-12.8818397,-0.052359094,-0.407916941,9.675043396-0.050071149,0.019043849,0.00187484,4,-3.87E-07,40.36321228,-12.82875014,0.503236218,-0.343290089,9.712652162-0.03402281,-0.074393414,-0.053291405,4,-3.20E-07,40.50174555,-12.74766916,0.208620456,0.06159072,9.7632395780.029544454,-0.112893291,-0.044749926,4,-5.03E-08,40.52328388,-12.67903606,-0.212396333,-0.061115467,9.5410010890.020841885,-0.015416862,-0.002363939,4,-2.49E-07,40.5335496,-12.60720992,-0.208225164,0.059126411,9.068331553-0.009743152,0.041839394,0.011565356,4,-4.43E-07,40.54990934,-12.55446784,-0.053241483,-0.206232946,9.663574471-0.013493026,0.01291702,0.011923196,4,4.15E-07,40.3352292,-12.70408081,0.555519043,0.214879417,9.73592016-0.02010224,-0.064682126,-0.052751366,4,-1.36E-07,40.33562191,-12.70281418,0.303263759,0.245759232,9.937623785-0.042448223,-0.076207198,-0.051948856,4,-1.84E-07,40.35015872,-12.71571203,-0.079197472,0.486293469,9.902539408-0.007018487,0.027696219,-0.001272429,4,1.62E-07,40.34271411,-12.73928678,0.061888556,0.492752392,9.942718136-0.008057755,0.018756329,0.019076574,4,8.13E-07,40.18210271,-12.9739864,0.279871893,0.427959634,9.92597980.003678432,0.005833345,0.008564104,4,1.77E-07,40.18210386,-12.97398677,0.026442547,-0.150125479,10.18984638-0.029545893,-0.015249834,-0.039970332,4,2.03E-07,40.39470962,-12.84255971,0.360853507,0.184004118,10.21078031-0.060359509,-0.029149194,-0.048883028,4,4.73E-07,40.40111237,-12.82240879,0.512558773,0.852146529,10.081967160.004814088,-0.045992165,-0.024260483,4,1.07E-07,40.29951744,-12.82788357,0.249555615,0.77467345,9.9891852570.015750073,-0.030766017,-0.004514926,4,-3.16E-07,40.30645076,-12.80608442,-0.180151337,0.184901419,9.941621871-0.023376955,0.023721681,0.010285759,4,2.84E-07,40.21439328,-12.99495975,0.221457496,0.325687532,9.848839712-0.075999968,0.045959474,-0.025515532,4,-4.63E-07,40.21775256,-12.98455606,0.531644566,0.504416303,9.997438523-0.034507128,-0.043363286,-0.037307284,4,-4.11E-07,40.32804984,-13.11769496,0.213615526,0.254823008,10.195622670.001942977,-0.099562268,-0.036353198,4,3.38E-07,40.32802377,-13.11777354,0.194238433,0.628343142,9.5487865350.039644083,0.022177769,0.025291064,4,-5.18E-07,40.19779677,-13.14344813,0.174134736,0.050596142,9.606442214-0.017304433,0.041903459,0.034921008,4,-8.20E-07,40.19484108,-13.15249395,0.56555792,-0.33832979,9.803271204-0.026628167,-0.072416892,-0.067056728,4,-7.64E-07,40.39827375,-13.1491905,0.405071856,-0.151863888,9.34184159-0.106475658,-0.09421822,-0.085585038,4,8.94E-08,40.40292836,-13.13488567,-0.055279614,0.385108528,8.696345124-0.124119362,-0.050299557,-0.09105636,4,5.14E-07,40.56729169,-13.10198831,-0.736050385,0.542572235,9.254546381-0.092287588,0.017610223,0.015170051,4,-4.05E-08,40.57228318,-13.08653318,-0.234271818,1.158131104,9.4504515310.02994849,0.004840364,0.070569162,4,-2.02E-07,40.51369827,-13.07922569,0.11105165,0.498058214,9.5612314120.033569399,-0.025256098,0.032774961,4,2.56E-07,40.50936208,-13.09264887,0.454291827,-0.218331768,9.308217361-0.051202634,-0.056491585,-0.025758347,4,-3.35E-07,40.56019588,-12.98449481,0.334128778,-0.192828261,9.181767122-0.077934623,-0.050450946,-0.049710191,4,-2.47E-07,40.55460149,-13.00197562,0.122463141,0.062373183,9.535379934-0.068842787,-0.05691306,-0.064599058,4,-3.90E-07,40.50239543,-12.83935516,0.192148773,0.499233539,9.611761240.013047406,0.004776571,0.013858099,4,-2.57E-07,40.50341884,-12.8361255,0.379075921,0.51794196,9.58594444-0.006921967,0.02032996,-1.84E-05,4,6.22E-08,40.51324121,-12.80509023,0.437976388,0.075769276,9.885430566-0.053976158,-0.023011873,-0.052025429,4,1.20E-07,40.52220096,-12.77671444,0.499192999,0.162371898,9.824723739-0.080320733,-0.010313739,-0.053638539,4,-2.96E-07,40.43045872,-12.54956149,0.228408343,0.369802002,9.702093966-0.099000149,0.05679879,-0.031913565,4,-1.13E-07,40.43761589,-12.52649085,0.232483661,0.37615193,9.701644994-0.014836035,0.020889135,-0.010594256,4,7.77E-07,40.69387888,-12.62855577,0.236558979,0.382501858,9.7011960220.05788625,-0.055841929,0.006794914,4,2.37E-08,40.70212368,-12.6019767,0.240634297,0.388851786,9.7007470490.034333016,-0.073348258,-0.047110568,4,2.26E-07,40.70490622,-12.59298714,0.244709615,0.395201714,9.700298077-0.028827012,-0.032627853,-0.037478282,4,6.76E-07,40.70816576,-12.58243157,0.248784933,0.401551642,9.699849105-0.003446318,0.03820846,-0.006345531,4,-2.15E-07,40.5702974,-12.51110399,0.252860251,0.40790157,9.699400133-0.03408695,0.018779856,-0.056030369,4,-2.50E-07,40.56409032,-12.53119155,0.25693557,0.414251498,9.698951161-0.005084964,-0.072320154,-0.057985837,4,-3.23E-07,40.64326605,-12.39092005,0.261010888,0.420601426,9.6985021890.015005579,-0.074435367,-0.093389655,4,-1.04E-07,40.65004291,-12.36866433,0.265086206,0.426951355,9.6980532170.029777985,-0.105316539,-0.049971752,4,3.31E-08,40.44796135,-12.44163977,0.269161524,0.433301283,9.6976042450.07613079,-0.042671008,0.025454957,4,-1.54E-08,40.45178445,-12.42921273,0.273236842,0.439651211,9.697155273-0.025985483,0.088998656,0.010721729,4,2.48E-07,40.56714188,-12.47757499,0.27731216,0.446001139,9.696706301-0.052626386,0.069786744,-0.037985518,4,3.92E-07,40.57259519,-12.45982543,0.281387478,0.452351067,9.696257329-0.01396845,-0.083318483,-0.105927846,4,3.35E-08,40.5882752,-12.25900225,0.285462796,0.458700995,9.695808356-0.029605131,-0.179378298,-0.1277265,4,3.73E-07,40.59142289,-12.24857028,0.289538114,0.465050923,9.695359384-0.058421535,-0.095558504,-0.089717628,4,2.12E-07,40.56354083,-12.27586606,0.293613433,0.471400851,9.694910412-0.017502641,0.039124043,0.026829732,4,-4.40E-07,40.54900773,-12.32377437,0.297688751,0.477750779,9.69446144-0.045523429,0.07919547,0.055068008,4,7.10E-07,40.52468537,-12.15926664,0.301764069,0.484100707,9.694012468-0.070305392,0.070295856,0.01064186,4,-2.31E-07,40.52567018,-12.15598371,0.305839387,0.490450635,9.693563496-0.110285872,-0.040338791,-0.055761219,4,-1.56E-07,40.51044433,-12.04038968,0.309914705,0.496800563,9.693114524-0.051538734,-0.104464163,-0.053718706,4,5.45E-08,40.52174314,-12.00228691,0.313990023,0.503150491,9.692665552-0.014350948,-0.093994094,-0.016928605,4,6.71E-08,40.57266736,-11.97357315,0.318065341,0.509500419,9.692216580.008314639,-0.028678167,0.013365701,4,-6.05E-08,40.57026094,-11.98172603,0.322140659,0.515850347,9.691767608-0.019172948,0.007628826,0.01682843,4,-2.83E-07,40.68406095,-12.1217009,0.326215977,0.522200275,9.691318636-0.037820129,-0.027145353,0.021338004,4,5.96E-08,40.67164644,-12.1632998,0.330291296,0.528550203,9.690869663-0.036436187,-0.065794395,-0.062300716,4,-5.77E-08,40.88528355,-12.32576765,0.334366614,0.534900131,9.690420691-0.020891828,-0.06876128,-0.037156173,4,-1.94E-07,40.88019594,-12.34264599,0.338441932,0.541250059,9.689971719-0.038388467,0.004354172,-0.028651983,4,1.79E-07,40.92816796,-12.18213628,0.34251725,0.547599987,9.689522747-0.080772493,0.019627844,-0.062689686,4,-5.99E-07,40.94421994,-12.12809371,0.346592568,0.553949915,9.689073775-0.033531718,-0.014056944,-0.067176624,4,-1.06E-07,40.9586514,-12.26379187,0.350667886,0.560299843,9.688624803-0.005434101,-0.055247936,-0.037957752,4,-1.86E-07,40.96803126,-12.2324122,0.354743204,0.566649771,9.6881758310.032874338,-0.012998411,-0.029008402,4,-7.36E-08,41.07319615,-12.44363672,0.358818522,0.5729997,9.6877268590.021823927,0.02358855,-4.40E-04,4,-2.42E-08,41.07951587,-12.42274073,0.36289384,0.579349628,9.687277887-0.035636527,-0.021253706,-0.076916079,4,2.97E-07,41.006946,-12.54664765,0.366969158,0.585699556,9.686828915-0.128589689,-0.021009554,-0.151126022,4,9.76E-08,41.00429667,-12.55530154,0.371044477,0.592049484,9.686379942-0.037197552,-0.040969491,-0.050320997,4,1.47E-07,41.05492406,-12.79210447,0.375119795,0.598399412,9.685930970.063630966,-0.022774499,0.029063407,4,-3.27E-07,41.04599335,-12.82073008,0.379195113,0.60474934,9.6854819980.017521917,0.033550539,0.047035465,4,4.07E-07,40.9930447,-12.86663499,0.383270431,0.611099268,9.685033026-0.046062429,0.0376715,-0.016470449,4,-2.34E-07,40.98431467,-12.89443497,0.387345749,0.617449196,9.684584054-0.019374212,-0.085067461,-0.076827056,4,4.24E-07,40.79756325,-12.80733847,0.391421067,0.623799124,9.6841350820.002276996,-0.162831828,-0.104684947,4,-6.44E-07,40.79880497,-12.8033761,0.395496385,0.630149052,9.683686110.023593065,-0.101226395,-0.04439,4,-2.32E-07,40.65723886,-12.82547146,0.399571703,0.63649898,9.683237138-0.034396884,-0.010351932,0.023549458,4,-4.19E-07,40.67026556,-12.78410358,0.403647021,0.642848908,9.682788166-0.010269049,0.020030516,0.009105605,4,-3.58E-07,40.62763005,-12.72598236,0.40772234,0.649198836,9.682339194-0.027185544,-0.056439256,0.004367341,4,-9.35E-08,40.63437742,-12.70438143,0.411797658,0.655548764,9.6818902220.018286861,-0.092753964,-0.021022661,4,-1.03E-07,40.52370585,-12.39397177,0.415872976,0.661898692,9.6814412490.003153315,-0.08860348,0.015000997,4,5.64E-07,40.52440255,-12.3917005,0.419948294,0.66824862,9.680992277-0.020500715,-0.059192412,-0.045517646,4,9.26E-07,40.58662046,-12.38744354,0.424023612,0.674598548,9.6805433050.028138788,-0.101717783,-0.036830285,4,2.37E-07,40.58935174,-12.37850998,0.42809893,0.680948476,9.6800943330.004569195,-0.041444102,0.009795164,4,8.82E-07,40.48661512,-12.29828328,0.432174248,0.687298404,9.679645361-0.021842088,-0.010321292,-0.016023176,4,-6.49E-07,40.49301594,-12.27721559,0.436249566,0.693648332,9.679196389-0.00378983,-0.049702262,-0.044343337,4,-1.42E-07,40.38464306,-11.98722101,0.440324884,0.69999826,9.6787474170.04520144,-0.046688738,-0.002929822,4,-4.17E-07,40.38523772,-11.9852368,0.444400203,0.706348188,9.6782984450.00885414,-0.066772765,-0.011089541,4,1.28E-07,40.48763846,-11.87767673,0.448475521,0.712698116,9.677849473